{"datasetJSONCreationDateTime":"2026-02-12T15:58:58","datasetJSONVersion":"1.1.0","itemGroupOID":"se","records":752,"name":"se","label":"se","columns":[{"dataType":"string","length":12,"itemOID":"STUDYID","name":"STUDYID","label":"Study Identifier"},{"dataType":"string","length":2,"itemOID":"DOMAIN","name":"DOMAIN","label":"Domain Abbreviation"},{"dataType":"string","length":11,"itemOID":"USUBJID","name":"USUBJID","label":"Unique Subject Identifier"},{"dataType":"float","itemOID":"SESEQ","name":"SESEQ","label":"Sequence Number"},{"dataType":"string","length":6,"itemOID":"ETCD","name":"ETCD","label":"Element Code"},{"dataType":"string","length":11,"itemOID":"ELEMENT","name":"ELEMENT","label":"Description of Element"},{"dataType":"string","length":10,"itemOID":"SESTDTC","name":"SESTDTC","label":"Start Date/Time of Element"},{"dataType":"string","length":10,"itemOID":"SEENDTC","name":"SEENDTC","label":"End Date/Time of Element"},{"dataType":"string","length":26,"itemOID":"SEUPDES","name":"SEUPDES","label":"Description of Unplanned Element"}],"rows":[["CDISCPILOT01","SE","01-701-1015",1.0,"SCRN","Screen","2013-12-26","2014-01-02",""],["CDISCPILOT01","SE","01-701-1015",4.0,"PBO","Placebo","2014-01-02","2014-07-02",""],["CDISCPILOT01","SE","01-701-1023",1.0,"SCRN","Screen","2012-07-22","2012-08-05",""],["CDISCPILOT01","SE","01-701-1023",4.0,"PBO","Placebo","2012-08-05","2013-02-18",""],["CDISCPILOT01","SE","01-701-1023",6.0,"FOLO","Follow_up","2013-02-18","2013-02-18",""],["CDISCPILOT01","SE","01-701-1028",1.0,"SCRN","Screen","2013-07-11","2013-07-19",""],["CDISCPILOT01","SE","01-701-1028",3.0,"HIS","High_Start","2013-07-19","2013-08-01",""],["CDISCPILOT01","SE","01-701-1028",4.0,"HIM","High_Middle","2013-08-01","2014-01-06",""],["CDISCPILOT01","SE","01-701-1028",5.0,"HIE","High_End","2014-01-06","2014-01-14",""],["CDISCPILOT01","SE","01-701-1033",1.0,"SCRN","Screen","2014-03-10","2014-03-18",""],["CDISCPILOT01","SE","01-701-1033",4.0,"LO","Low","2014-03-18","2014-04-14",""],["CDISCPILOT01","SE","01-701-1033",6.0,"FOLO","Follow_up","2014-04-14","2014-09-15",""],["CDISCPILOT01","SE","01-701-1034",1.0,"SCRN","Screen","2014-06-24","2014-07-01",""],["CDISCPILOT01","SE","01-701-1034",3.0,"HIS","High_Start","2014-07-01","2014-07-15",""],["CDISCPILOT01","SE","01-701-1034",4.0,"HIM","High_Middle","2014-07-15","2014-12-17",""],["CDISCPILOT01","SE","01-701-1034",5.0,"HIE","High_End","2014-12-17","2014-12-30",""],["CDISCPILOT01","SE","01-701-1047",1.0,"SCRN","Screen","2013-01-22","2013-02-12",""],["CDISCPILOT01","SE","01-701-1047",4.0,"PBO","Placebo","2013-02-12","2013-04-07",""],["CDISCPILOT01","SE","01-701-1047",6.0,"FOLO","Follow_up","2013-04-07","2013-07-28",""],["CDISCPILOT01","SE","01-701-1057",1.0,"SCRN","Screen","2013-12-20","2013-12-27",""],["CDISCPILOT01","SE","01-701-1097",1.0,"SCRN","Screen","2013-12-23","2014-01-01",""],["CDISCPILOT01","SE","01-701-1097",4.0,"LO","Low","2014-01-01","2014-07-09",""],["CDISCPILOT01","SE","01-701-1111",1.0,"SCRN","Screen","2012-08-25","2012-09-07",""],["CDISCPILOT01","SE","01-701-1111",4.0,"LO","Low","2012-09-07","2012-09-17",""],["CDISCPILOT01","SE","01-701-1111",6.0,"FOLO","Follow_up","2012-09-17","2013-02-22",""],["CDISCPILOT01","SE","01-701-1115",1.0,"SCRN","Screen","2012-11-23","2012-11-30",""],["CDISCPILOT01","SE","01-701-1115",4.0,"LO","Low","2012-11-30","2013-01-23",""],["CDISCPILOT01","SE","01-701-1115",6.0,"FOLO","Follow_up","2013-01-23","2013-05-20",""],["CDISCPILOT01","SE","01-701-1118",1.0,"SCRN","Screen","2014-02-27","2014-03-12",""],["CDISCPILOT01","SE","01-701-1118",4.0,"PBO","Placebo","2014-03-12","2014-09-09",""],["CDISCPILOT01","SE","01-701-1130",1.0,"SCRN","Screen","2014-02-09","2014-02-15",""],["CDISCPILOT01","SE","01-701-1130",4.0,"PBO","Placebo","2014-02-15","2014-08-16",""],["CDISCPILOT01","SE","01-701-1133",1.0,"SCRN","Screen","2012-10-23","2012-10-28",""],["CDISCPILOT01","SE","01-701-1133",3.0,"HIS","High_Start","2012-10-28","2012-11-12",""],["CDISCPILOT01","SE","01-701-1133",4.0,"HIM","High_Middle","2012-11-12","2013-04-18",""],["CDISCPILOT01","SE","01-701-1133",5.0,"HIE","High_End","2013-04-18","2013-04-29",""],["CDISCPILOT01","SE","01-701-1145",1.0,"SCRN","Screen","2013-09-05","2013-09-19",""],["CDISCPILOT01","SE","01-701-1146",1.0,"SCRN","Screen","2013-05-07","2013-05-20",""],["CDISCPILOT01","SE","01-701-1146",3.0,"HIS","High_Start","2013-05-20","2013-06-03",""],["CDISCPILOT01","SE","01-701-1146",4.0,"HIM","High_Middle","2013-06-03","2013-06-30",""],["CDISCPILOT01","SE","01-701-1146",6.0,"FOLO","Follow_up","2013-06-30","2013-07-15",""],["CDISCPILOT01","SE","01-701-1148",1.0,"SCRN","Screen","2013-08-14","2013-08-23",""],["CDISCPILOT01","SE","01-701-1148",3.0,"HIS","High_Start","2013-08-23","2013-09-05",""],["CDISCPILOT01","SE","01-701-1148",4.0,"HIM","High_Middle","2013-09-05","2014-02-08",""],["CDISCPILOT01","SE","01-701-1148",5.0,"HIE","High_End","2014-02-08","2014-02-20",""],["CDISCPILOT01","SE","01-701-1153",1.0,"SCRN","Screen","2013-09-06","2013-09-23",""],["CDISCPILOT01","SE","01-701-1153",4.0,"PBO","Placebo","2013-09-23","2014-04-01",""],["CDISCPILOT01","SE","01-701-1162",1.0,"SCRN","Screen","2013-04-08","2013-04-18",""],["CDISCPILOT01","SE","01-701-1176",1.0,"SCRN","Screen","2012-09-30","2012-09-30",""],["CDISCPILOT01","SE","01-701-1180",1.0,"SCRN","Screen","2013-01-28","2013-02-12",""],["CDISCPILOT01","SE","01-701-1180",3.0,"HIS","High_Start","2013-02-12","2013-02-25",""],["CDISCPILOT01","SE","01-701-1180",4.0,"HIM","High_Middle","2013-02-25","2013-03-23",""],["CDISCPILOT01","SE","01-701-1180",6.0,"FOLO","Follow_up","2013-03-23","2013-04-07",""],["CDISCPILOT01","SE","01-701-1181",1.0,"SCRN","Screen","2013-11-26","2013-12-05",""],["CDISCPILOT01","SE","01-701-1181",3.0,"HIS","High_Start","2013-12-05","2013-12-12",""],["CDISCPILOT01","SE","01-701-1181",6.0,"FOLO","Follow_up","2013-12-12","2014-05-23",""],["CDISCPILOT01","SE","01-701-1188",1.0,"SCRN","Screen","2013-02-03","2013-02-15",""],["CDISCPILOT01","SE","01-701-1188",4.0,"LO","Low","2013-02-15","2013-03-25",""],["CDISCPILOT01","SE","01-701-1188",6.0,"FOLO","Follow_up","2013-03-25","2013-08-04",""],["CDISCPILOT01","SE","01-701-1192",1.0,"SCRN","Screen","2012-07-08","2012-07-22",""],["CDISCPILOT01","SE","01-701-1192",4.0,"LO","Low","2012-07-22","2013-01-20",""],["CDISCPILOT01","SE","01-701-1203",1.0,"SCRN","Screen","2013-01-25","2013-02-02",""],["CDISCPILOT01","SE","01-701-1203",4.0,"PBO","Placebo","2013-02-02","2013-08-03",""],["CDISCPILOT01","SE","01-701-1211",1.0,"SCRN","Screen","2012-10-30","2012-11-15",""],["CDISCPILOT01","SE","01-701-1211",4.0,"LO","Low","2012-11-15","2013-01-14",""],["CDISCPILOT01","SE","01-701-1234",1.0,"SCRN","Screen","2013-03-20","2013-03-30",""],["CDISCPILOT01","SE","01-701-1234",4.0,"PBO","Placebo","2013-03-30","2013-09-22",""],["CDISCPILOT01","SE","01-701-1239",1.0,"SCRN","Screen","2013-12-28","2014-01-11",""],["CDISCPILOT01","SE","01-701-1239",3.0,"HIS","High_Start","2014-01-11","2014-01-25",""],["CDISCPILOT01","SE","01-701-1239",4.0,"HIM","High_Middle","2014-01-25","2014-06-27",""],["CDISCPILOT01","SE","01-701-1239",5.0,"HIE","High_End","2014-06-27","2014-07-11",""],["CDISCPILOT01","SE","01-701-1240",1.0,"SCRN","Screen","2013-09-22","2013-09-24",""],["CDISCPILOT01","SE","01-701-1275",1.0,"SCRN","Screen","2014-01-25","2014-02-07",""],["CDISCPILOT01","SE","01-701-1275",3.0,"HIS","High_Start","2014-02-07","2014-02-22",""],["CDISCPILOT01","SE","01-701-1275",4.0,"HIM","High_Middle","2014-02-22","2014-06-14",""],["CDISCPILOT01","SE","01-701-1287",1.0,"SCRN","Screen","2014-01-17","2014-01-25",""],["CDISCPILOT01","SE","01-701-1287",3.0,"HIS","High_Start","2014-01-25","2014-02-11",""],["CDISCPILOT01","SE","01-701-1287",4.0,"HIM","High_Middle","2014-02-11","2014-07-12",""],["CDISCPILOT01","SE","01-701-1287",5.0,"HIE","High_End","2014-07-12","2014-07-26",""],["CDISCPILOT01","SE","01-701-1294",1.0,"SCRN","Screen","2013-03-17","2013-03-24",""],["CDISCPILOT01","SE","01-701-1294",4.0,"LO","Low","2013-03-24","2013-06-14",""],["CDISCPILOT01","SE","01-701-1294",6.0,"FOLO","Follow_up","2013-06-14","2013-10-08",""],["CDISCPILOT01","SE","01-701-1302",1.0,"SCRN","Screen","2013-08-20","2013-08-29",""],["CDISCPILOT01","SE","01-701-1302",3.0,"HIS","High_Start","2013-08-29","2013-09-15",""],["CDISCPILOT01","SE","01-701-1302",4.0,"HIM","High_Middle","2013-09-15","2013-11-05",""],["CDISCPILOT01","SE","01-701-1302",6.0,"FOLO","Follow_up","2013-11-05","2014-02-13",""],["CDISCPILOT01","SE","01-701-1307",1.0,"SCRN","Screen","2013-12-08","2014-01-02",""],["CDISCPILOT01","SE","01-701-1317",1.0,"SCRN","Screen","2014-05-10","2014-05-22",""],["CDISCPILOT01","SE","01-701-1317",4.0,"LO","Low","2014-05-22","2014-11-20",""],["CDISCPILOT01","SE","01-701-1324",1.0,"SCRN","Screen","2012-09-16","2012-10-02",""],["CDISCPILOT01","SE","01-701-1324",4.0,"LO","Low","2012-10-02","2013-04-02",""],["CDISCPILOT01","SE","01-701-1341",1.0,"SCRN","Screen","2012-12-22","2013-01-05",""],["CDISCPILOT01","SE","01-701-1341",4.0,"LO","Low","2013-01-05","2013-02-07",""],["CDISCPILOT01","SE","01-701-1341",6.0,"FOLO","Follow_up","2013-02-07","2013-02-21",""],["CDISCPILOT01","SE","01-701-1345",1.0,"SCRN","Screen","2013-10-01","2013-10-08",""],["CDISCPILOT01","SE","01-701-1345",4.0,"PBO","Placebo","2013-10-08","2014-03-18",""],["CDISCPILOT01","SE","01-701-1356",1.0,"SCRN","Screen","2014-04-01","2014-05-28",""],["CDISCPILOT01","SE","01-701-1360",1.0,"SCRN","Screen","2013-07-24","2013-07-31",""],["CDISCPILOT01","SE","01-701-1360",3.0,"HIS","High_Start","2013-07-31","2013-08-14",""],["CDISCPILOT01","SE","01-701-1360",6.0,"FOLO","Follow_up","2013-08-14","2014-02-11",""],["CDISCPILOT01","SE","01-701-1363",1.0,"SCRN","Screen","2013-05-20","2013-05-30",""],["CDISCPILOT01","SE","01-701-1363",4.0,"PBO","Placebo","2013-05-30","2013-11-27",""],["CDISCPILOT01","SE","01-701-1369",1.0,"SCRN","Screen","2013-09-18","2013-09-30",""],["CDISCPILOT01","SE","01-701-1383",1.0,"SCRN","Screen","2013-01-22","2013-02-04",""],["CDISCPILOT01","SE","01-701-1383",3.0,"HIS","High_Start","2013-02-04","2013-02-19",""],["CDISCPILOT01","SE","01-701-1383",4.0,"HIM","High_Middle","2013-02-19","2013-07-30",""],["CDISCPILOT01","SE","01-701-1383",5.0,"HIE","High_End","2013-07-30","2013-08-06",""],["CDISCPILOT01","SE","01-701-1386",1.0,"SCRN","Screen","2013-12-28","2014-01-07",""],["CDISCPILOT01","SE","01-701-1387",1.0,"SCRN","Screen","2014-02-23","2014-03-12",""],["CDISCPILOT01","SE","01-701-1387",4.0,"PBO","Placebo","2014-03-12","2014-03-25",""],["CDISCPILOT01","SE","01-701-1387",6.0,"FOLO","Follow_up","2014-03-25","2014-08-27",""],["CDISCPILOT01","SE","01-701-1392",1.0,"SCRN","Screen","2012-10-17","2012-10-28",""],["CDISCPILOT01","SE","01-701-1392",4.0,"PBO","Placebo","2012-10-28","2013-04-28",""],["CDISCPILOT01","SE","01-701-1411",1.0,"SCRN","Screen","2012-11-14","2012-11-24",""],["CDISCPILOT01","SE","01-701-1415",1.0,"SCRN","Screen","2013-09-15","2013-09-23",""],["CDISCPILOT01","SE","01-701-1415",4.0,"PBO","Placebo","2013-09-23","2014-03-24",""],["CDISCPILOT01","SE","01-701-1429",1.0,"SCRN","Screen","2013-02-25","2013-03-19",""],["CDISCPILOT01","SE","01-701-1429",4.0,"LO","Low","2013-03-19","2013-04-30",""],["CDISCPILOT01","SE","01-701-1440",1.0,"SCRN","Screen","2013-07-24","2013-08-08",""],["CDISCPILOT01","SE","01-701-1440",4.0,"PBO","Placebo","2013-08-08","2014-02-05",""],["CDISCPILOT01","SE","01-701-1442",1.0,"SCRN","Screen","2013-10-17","2013-10-26",""],["CDISCPILOT01","SE","01-701-1442",4.0,"LO","Low","2013-10-26","2014-04-26",""],["CDISCPILOT01","SE","01-701-1444",1.0,"SCRN","Screen","2012-12-31","2013-01-05",""],["CDISCPILOT01","SE","01-701-1444",3.0,"HIS","High_Start","2013-01-05","2013-01-18",""],["CDISCPILOT01","SE","01-701-1444",4.0,"HIM","High_Middle","2013-01-18","2013-02-13",""],["CDISCPILOT01","SE","01-701-1444",6.0,"FOLO","Follow_up","2013-02-13","2013-06-20",""],["CDISCPILOT01","SE","01-702-1082",1.0,"SCRN","Screen","2013-07-03","2013-07-26",""],["CDISCPILOT01","SE","01-702-1082",4.0,"LO","Low","2013-07-26","2013-11-17",""],["CDISCPILOT01","SE","01-703-1042",1.0,"SCRN","Screen","2013-02-23","2013-03-02",""],["CDISCPILOT01","SE","01-703-1042",4.0,"PBO","Placebo","2013-03-02","2013-08-31",""],["CDISCPILOT01","SE","01-703-1076",1.0,"SCRN","Screen","2013-10-17","2013-10-25",""],["CDISCPILOT01","SE","01-703-1076",3.0,"HIS","High_Start","2013-10-25","2013-11-06",""],["CDISCPILOT01","SE","01-703-1076",4.0,"HIM","High_Middle","2013-11-06","2013-12-24",""],["CDISCPILOT01","SE","01-703-1076",6.0,"FOLO","Follow_up","2013-12-24","2014-01-21",""],["CDISCPILOT01","SE","01-703-1086",1.0,"SCRN","Screen","2012-08-22","2012-09-02",""],["CDISCPILOT01","SE","01-703-1086",4.0,"LO","Low","2012-09-02","2012-12-24",""],["CDISCPILOT01","SE","01-703-1086",6.0,"FOLO","Follow_up","2012-12-24","2013-03-26",""],["CDISCPILOT01","SE","01-703-1096",1.0,"SCRN","Screen","2012-12-19","2013-01-25",""],["CDISCPILOT01","SE","01-703-1096",4.0,"PBO","Placebo","2013-01-25","2013-03-29",""],["CDISCPILOT01","SE","01-703-1100",1.0,"SCRN","Screen","2013-02-28","2013-03-13",""],["CDISCPILOT01","SE","01-703-1100",4.0,"PBO","Placebo","2013-03-13","2013-09-14",""],["CDISCPILOT01","SE","01-703-1119",1.0,"SCRN","Screen","2013-02-02","2013-02-20",""],["CDISCPILOT01","SE","01-703-1119",4.0,"LO","Low","2013-02-20","2013-06-13",""],["CDISCPILOT01","SE","01-703-1119",6.0,"FOLO","Follow_up","2013-06-13","2013-08-24",""],["CDISCPILOT01","SE","01-703-1175",1.0,"SCRN","Screen","2013-12-13","2013-12-20",""],["CDISCPILOT01","SE","01-703-1175",4.0,"PBO","Placebo","2013-12-20","2013-12-31",""],["CDISCPILOT01","SE","01-703-1175",6.0,"FOLO","Follow_up","2013-12-31","2013-12-31",""],["CDISCPILOT01","SE","01-703-1182",1.0,"SCRN","Screen","2013-10-08","2013-10-17",""],["CDISCPILOT01","SE","01-703-1182",4.0,"LO","Low","2013-10-17","2013-12-12",""],["CDISCPILOT01","SE","01-703-1182",6.0,"FOLO","Follow_up","2013-12-12","2014-01-14",""],["CDISCPILOT01","SE","01-703-1197",1.0,"SCRN","Screen","2013-06-01","2013-06-16",""],["CDISCPILOT01","SE","01-703-1197",4.0,"LO","Low","2013-06-16","2013-07-22",""],["CDISCPILOT01","SE","01-703-1210",1.0,"SCRN","Screen","2013-03-08","2013-03-16",""],["CDISCPILOT01","SE","01-703-1210",4.0,"PBO","Placebo","2013-03-16","2013-09-06",""],["CDISCPILOT01","SE","01-703-1258",1.0,"SCRN","Screen","2012-07-10","2012-07-20",""],["CDISCPILOT01","SE","01-703-1258",3.0,"HIS","High_Start","2012-07-20","2012-08-01",""],["CDISCPILOT01","SE","01-703-1258",4.0,"HIM","High_Middle","2012-08-01","2012-12-31",""],["CDISCPILOT01","SE","01-703-1258",5.0,"HIE","High_End","2012-12-31","2013-01-21",""],["CDISCPILOT01","SE","01-703-1258",6.0,"FOLO","Follow_up","2013-01-21","2013-01-28",""],["CDISCPILOT01","SE","01-703-1279",1.0,"SCRN","Screen","2013-04-27","2013-05-13",""],["CDISCPILOT01","SE","01-703-1279",4.0,"LO","Low","2013-05-13","2013-06-22",""],["CDISCPILOT01","SE","01-703-1295",1.0,"SCRN","Screen","2013-10-24","2013-11-21",""],["CDISCPILOT01","SE","01-703-1295",3.0,"HIS","High_Start","2013-11-21","2013-12-05",""],["CDISCPILOT01","SE","01-703-1295",4.0,"HIM","High_Middle","2013-12-05","2014-05-19",""],["CDISCPILOT01","SE","01-703-1299",1.0,"SCRN","Screen","2012-09-07","2012-09-12",""],["CDISCPILOT01","SE","01-703-1299",4.0,"PBO","Placebo","2012-09-12","2013-03-27",""],["CDISCPILOT01","SE","01-703-1335",1.0,"SCRN","Screen","2014-02-28","2014-03-17",""],["CDISCPILOT01","SE","01-703-1335",3.0,"HIS","High_Start","2014-03-17","2014-03-31",""],["CDISCPILOT01","SE","01-703-1335",4.0,"HIM","High_Middle","2014-03-31","2014-05-24",""],["CDISCPILOT01","SE","01-703-1379",1.0,"SCRN","Screen","2013-09-12","2013-09-22",""],["CDISCPILOT01","SE","01-703-1379",4.0,"LO","Low","2013-09-22","2014-03-21",""],["CDISCPILOT01","SE","01-703-1396",1.0,"SCRN","Screen","2014-02-09","2014-02-27",""],["CDISCPILOT01","SE","01-703-1403",1.0,"SCRN","Screen","2012-12-05","2012-12-12",""],["CDISCPILOT01","SE","01-703-1403",3.0,"HIS","High_Start","2012-12-12","2012-12-19",""],["CDISCPILOT01","SE","01-703-1403",6.0,"FOLO","Follow_up","2012-12-19","2013-01-08",""],["CDISCPILOT01","SE","01-703-1439",1.0,"SCRN","Screen","2014-03-04","2014-03-12",""],["CDISCPILOT01","SE","01-703-1439",3.0,"HIS","High_Start","2014-03-12","2014-03-26",""],["CDISCPILOT01","SE","01-703-1439",4.0,"HIM","High_Middle","2014-03-26","2014-08-28",""],["CDISCPILOT01","SE","01-703-1439",5.0,"HIE","High_End","2014-08-28","2014-09-11",""],["CDISCPILOT01","SE","01-704-1008",1.0,"SCRN","Screen","2013-01-06","2013-01-13",""],["CDISCPILOT01","SE","01-704-1008",3.0,"HIS","High_Start","2013-01-13","2013-01-28",""],["CDISCPILOT01","SE","01-704-1008",4.0,"HIM","High_Middle","2013-01-28","2013-02-25",""],["CDISCPILOT01","SE","01-704-1009",1.0,"SCRN","Screen","2013-08-20","2013-08-27",""],["CDISCPILOT01","SE","01-704-1009",4.0,"LO","Low","2013-08-27","2013-10-02",""],["CDISCPILOT01","SE","01-704-1010",1.0,"SCRN","Screen","2014-02-08","2014-02-21",""],["CDISCPILOT01","SE","01-704-1010",4.0,"PBO","Placebo","2014-02-21","2014-07-09",""],["CDISCPILOT01","SE","01-704-1017",1.0,"SCRN","Screen","2013-09-20","2013-10-06",""],["CDISCPILOT01","SE","01-704-1017",3.0,"HIS","High_Start","2013-10-06","2013-10-19",""],["CDISCPILOT01","SE","01-704-1017",4.0,"HIM","High_Middle","2013-10-19","2013-11-24",""],["CDISCPILOT01","SE","01-704-1017",6.0,"FOLO","Follow_up","2013-11-24","2013-12-06",""],["CDISCPILOT01","SE","01-704-1025",1.0,"SCRN","Screen","2013-09-18","2013-09-27",""],["CDISCPILOT01","SE","01-704-1025",4.0,"LO","Low","2013-09-27","2013-11-29",""],["CDISCPILOT01","SE","01-704-1065",1.0,"SCRN","Screen","2013-10-17","2013-10-24",""],["CDISCPILOT01","SE","01-704-1065",3.0,"HIS","High_Start","2013-10-24","2013-11-07",""],["CDISCPILOT01","SE","01-704-1065",4.0,"HIM","High_Middle","2013-11-07","2013-12-24",""],["CDISCPILOT01","SE","01-704-1065",6.0,"FOLO","Follow_up","2013-12-24","2014-02-17",""],["CDISCPILOT01","SE","01-704-1074",1.0,"SCRN","Screen","2014-01-19","2014-01-22",""],["CDISCPILOT01","SE","01-704-1074",3.0,"HIS","High_Start","2014-01-22","2014-02-09",""],["CDISCPILOT01","SE","01-704-1074",4.0,"HIM","High_Middle","2014-02-09","2014-03-31",""],["CDISCPILOT01","SE","01-704-1093",1.0,"SCRN","Screen","2013-02-22","2013-03-15",""],["CDISCPILOT01","SE","01-704-1093",3.0,"HIS","High_Start","2013-03-15","2013-03-30",""],["CDISCPILOT01","SE","01-704-1093",4.0,"HIM","High_Middle","2013-03-30","2013-06-20",""],["CDISCPILOT01","SE","01-704-1093",6.0,"FOLO","Follow_up","2013-06-20","2013-12-25",""],["CDISCPILOT01","SE","01-704-1114",1.0,"SCRN","Screen","2013-01-09","2013-01-23",""],["CDISCPILOT01","SE","01-704-1114",4.0,"LO","Low","2013-01-23","2013-07-08",""],["CDISCPILOT01","SE","01-704-1120",1.0,"SCRN","Screen","2013-11-18","2013-12-02",""],["CDISCPILOT01","SE","01-704-1120",4.0,"LO","Low","2013-12-02","2014-02-03",""],["CDISCPILOT01","SE","01-704-1120",6.0,"FOLO","Follow_up","2014-02-03","2014-03-10",""],["CDISCPILOT01","SE","01-704-1127",1.0,"SCRN","Screen","2013-09-16","2013-10-02",""],["CDISCPILOT01","SE","01-704-1127",4.0,"PBO","Placebo","2013-10-02","2014-03-31",""],["CDISCPILOT01","SE","01-704-1135",1.0,"SCRN","Screen","2013-10-23","2013-10-31",""],["CDISCPILOT01","SE","01-704-1135",4.0,"LO","Low","2013-10-31","2014-05-16",""],["CDISCPILOT01","SE","01-704-1164",1.0,"SCRN","Screen","2012-09-11","2012-09-19",""],["CDISCPILOT01","SE","01-704-1164",4.0,"PBO","Placebo","2012-09-19","2013-04-04",""],["CDISCPILOT01","SE","01-704-1218",1.0,"SCRN","Screen","2012-11-11","2012-11-19",""],["CDISCPILOT01","SE","01-704-1218",4.0,"LO","Low","2012-11-19","2013-05-27",""],["CDISCPILOT01","SE","01-704-1233",1.0,"SCRN","Screen","2013-03-08","2013-03-21",""],["CDISCPILOT01","SE","01-704-1233",4.0,"PBO","Placebo","2013-03-21","2013-07-14",""],["CDISCPILOT01","SE","01-704-1241",1.0,"SCRN","Screen","2013-08-14","2013-08-25",""],["CDISCPILOT01","SE","01-704-1241",3.0,"HIS","High_Start","2013-08-25","2013-09-05",""],["CDISCPILOT01","SE","01-704-1241",4.0,"HIM","High_Middle","2013-09-05","2013-10-31",""],["CDISCPILOT01","SE","01-704-1241",6.0,"FOLO","Follow_up","2013-10-31","2014-01-22",""],["CDISCPILOT01","SE","01-704-1260",1.0,"SCRN","Screen","2012-08-23","2012-08-30",""],["CDISCPILOT01","SE","01-704-1260",4.0,"PBO","Placebo","2012-08-30","2013-01-18",""],["CDISCPILOT01","SE","01-704-1266",1.0,"SCRN","Screen","2013-10-05","2013-10-13",""],["CDISCPILOT01","SE","01-704-1266",3.0,"HIS","High_Start","2013-10-13","2013-10-27",""],["CDISCPILOT01","SE","01-704-1266",4.0,"HIM","High_Middle","2013-10-27","2013-12-06",""],["CDISCPILOT01","SE","01-704-1266",6.0,"FOLO","Follow_up","2013-12-06","2014-01-03",""],["CDISCPILOT01","SE","01-704-1323",1.0,"SCRN","Screen","2013-06-13","2013-07-08",""],["CDISCPILOT01","SE","01-704-1323",4.0,"LO","Low","2013-07-08","2013-08-08",""],["CDISCPILOT01","SE","01-704-1323",6.0,"FOLO","Follow_up","2013-08-08","2013-10-01",""],["CDISCPILOT01","SE","01-704-1325",1.0,"SCRN","Screen","2014-04-16","2014-04-23",""],["CDISCPILOT01","SE","01-704-1325",4.0,"LO","Low","2014-04-23","2014-08-06",""],["CDISCPILOT01","SE","01-704-1332",1.0,"SCRN","Screen","2013-11-24","2013-12-09",""],["CDISCPILOT01","SE","01-704-1332",3.0,"HIS","High_Start","2013-12-09","2013-12-23",""],["CDISCPILOT01","SE","01-704-1332",4.0,"HIM","High_Middle","2013-12-23","2014-02-16",""],["CDISCPILOT01","SE","01-704-1332",6.0,"FOLO","Follow_up","2014-02-16","2014-02-24",""],["CDISCPILOT01","SE","01-704-1351",1.0,"SCRN","Screen","2013-09-26","2013-10-12",""],["CDISCPILOT01","SE","01-704-1351",4.0,"PBO","Placebo","2013-10-12","2014-04-18",""],["CDISCPILOT01","SE","01-704-1388",1.0,"SCRN","Screen","2012-11-28","2012-12-07",""],["CDISCPILOT01","SE","01-704-1388",4.0,"PBO","Placebo","2012-12-07","2013-06-19",""],["CDISCPILOT01","SE","01-704-1435",1.0,"SCRN","Screen","2012-11-01","2012-11-17",""],["CDISCPILOT01","SE","01-704-1435",4.0,"PBO","Placebo","2012-11-17","2013-01-12",""],["CDISCPILOT01","SE","01-704-1445",1.0,"SCRN","Screen","2014-05-01","2014-05-11",""],["CDISCPILOT01","SE","01-704-1445",4.0,"PBO","Placebo","2014-05-11","2014-11-01",""],["CDISCPILOT01","SE","01-705-1011",1.0,"SCRN","Screen","2013-09-01","2013-09-13",""],["CDISCPILOT01","SE","01-705-1018",1.0,"SCRN","Screen","2013-06-30","2013-07-05",""],["CDISCPILOT01","SE","01-705-1018",4.0,"PBO","Placebo","2013-07-05","2013-07-12",""],["CDISCPILOT01","SE","01-705-1031",1.0,"SCRN","Screen","2013-11-17","2013-11-27",""],["CDISCPILOT01","SE","01-705-1031",4.0,"LO","Low","2013-11-27","2014-05-11",""],["CDISCPILOT01","SE","01-705-1058",1.0,"SCRN","Screen","2013-12-02","2013-12-06",""],["CDISCPILOT01","SE","01-705-1059",1.0,"SCRN","Screen","2013-08-02","2013-08-05",""],["CDISCPILOT01","SE","01-705-1059",4.0,"PBO","Placebo","2013-08-05","2013-12-05",""],["CDISCPILOT01","SE","01-705-1059",6.0,"FOLO","Follow_up","2013-12-05","2014-02-06",""],["CDISCPILOT01","SE","01-705-1112",1.0,"SCRN","Screen","2014-02-23","2014-02-24",""],["CDISCPILOT01","SE","01-705-1186",1.0,"SCRN","Screen","2014-01-03","2014-01-08",""],["CDISCPILOT01","SE","01-705-1186",4.0,"PBO","Placebo","2014-01-08","2014-02-07",""],["CDISCPILOT01","SE","01-705-1199",1.0,"SCRN","Screen","2013-09-11","2013-09-16",""],["CDISCPILOT01","SE","01-705-1199",4.0,"LO","Low","2013-09-16","2013-09-29",""],["CDISCPILOT01","SE","01-705-1199",6.0,"FOLO","Follow_up","2013-09-29","2013-09-29",""],["CDISCPILOT01","SE","01-705-1243",1.0,"SCRN","Screen","2013-02-26","2013-03-04",""],["CDISCPILOT01","SE","01-705-1280",1.0,"SCRN","Screen","2014-01-11","2014-01-17",""],["CDISCPILOT01","SE","01-705-1280",3.0,"HIS","High_Start","2014-01-17","2014-01-31",""],["CDISCPILOT01","SE","01-705-1280",4.0,"HIM","High_Middle","2014-01-31","2014-07-11",""],["CDISCPILOT01","SE","01-705-1280",5.0,"HIE","High_End","2014-07-11","2014-07-25",""],["CDISCPILOT01","SE","01-705-1281",1.0,"SCRN","Screen","2013-11-26","2013-11-28",""],["CDISCPILOT01","SE","01-705-1281",3.0,"HIS","High_Start","2013-11-28","2013-12-15",""],["CDISCPILOT01","SE","01-705-1281",4.0,"HIM","High_Middle","2013-12-15","2014-03-17",""],["CDISCPILOT01","SE","01-705-1281",6.0,"FOLO","Follow_up","2014-03-17","2014-04-20",""],["CDISCPILOT01","SE","01-705-1282",1.0,"SCRN","Screen","2012-12-23","2012-12-26",""],["CDISCPILOT01","SE","01-705-1282",4.0,"PBO","Placebo","2012-12-26","2013-06-24",""],["CDISCPILOT01","SE","01-705-1292",1.0,"SCRN","Screen","2013-10-11","2013-10-14",""],["CDISCPILOT01","SE","01-705-1292",4.0,"LO","Low","2013-10-14","2014-05-14",""],["CDISCPILOT01","SE","01-705-1303",1.0,"SCRN","Screen","2013-12-10","2013-12-16",""],["CDISCPILOT01","SE","01-705-1303",3.0,"HIS","High_Start","2013-12-16","2013-12-30",""],["CDISCPILOT01","SE","01-705-1303",4.0,"HIM","High_Middle","2013-12-30","2014-06-02",""],["CDISCPILOT01","SE","01-705-1310",1.0,"SCRN","Screen","2013-10-26","2013-11-02",""],["CDISCPILOT01","SE","01-705-1310",3.0,"HIS","High_Start","2013-11-02","2013-11-22",""],["CDISCPILOT01","SE","01-705-1310",4.0,"HIM","High_Middle","2013-11-22","2014-01-23",""],["CDISCPILOT01","SE","01-705-1310",6.0,"FOLO","Follow_up","2014-01-23","2014-02-24",""],["CDISCPILOT01","SE","01-705-1349",1.0,"SCRN","Screen","2013-02-24","2013-03-10",""],["CDISCPILOT01","SE","01-705-1349",4.0,"PBO","Placebo","2013-03-10","2013-09-08",""],["CDISCPILOT01","SE","01-705-1377",1.0,"SCRN","Screen","2013-12-29","2014-01-04",""],["CDISCPILOT01","SE","01-705-1377",3.0,"HIS","High_Start","2014-01-04","2014-01-25",""],["CDISCPILOT01","SE","01-705-1377",4.0,"HIM","High_Middle","2014-01-25","2014-03-07",""],["CDISCPILOT01","SE","01-705-1382",1.0,"SCRN","Screen","2013-05-09","2013-05-13",""],["CDISCPILOT01","SE","01-705-1382",3.0,"HIS","High_Start","2013-05-13","2013-05-13",""],["CDISCPILOT01","SE","01-705-1393",1.0,"SCRN","Screen","2012-09-02","2012-09-07",""],["CDISCPILOT01","SE","01-705-1393",4.0,"LO","Low","2012-09-07","2013-02-20",""],["CDISCPILOT01","SE","01-705-1393",6.0,"FOLO","Follow_up","2013-02-20","2013-04-25",""],["CDISCPILOT01","SE","01-705-1421",1.0,"SCRN","Screen","2013-01-14","2013-01-16",""],["CDISCPILOT01","SE","01-705-1431",1.0,"SCRN","Screen","2013-06-16","2013-06-23",""],["CDISCPILOT01","SE","01-705-1431",4.0,"LO","Low","2013-06-23","2013-12-19",""],["CDISCPILOT01","SE","01-706-1041",1.0,"SCRN","Screen","2013-12-21","2013-12-31",""],["CDISCPILOT01","SE","01-706-1041",4.0,"PBO","Placebo","2013-12-31","2014-07-29",""],["CDISCPILOT01","SE","01-706-1049",1.0,"SCRN","Screen","2013-04-30","2013-05-14",""],["CDISCPILOT01","SE","01-706-1049",3.0,"HIS","High_Start","2013-05-14","2013-05-28",""],["CDISCPILOT01","SE","01-706-1049",4.0,"HIM","High_Middle","2013-05-28","2013-06-25",""],["CDISCPILOT01","SE","01-706-1049",6.0,"FOLO","Follow_up","2013-06-25","2013-11-26",""],["CDISCPILOT01","SE","01-706-1384",1.0,"SCRN","Screen","2012-08-25","2012-09-15",""],["CDISCPILOT01","SE","01-706-1384",4.0,"LO","Low","2012-09-15","2012-09-29",""],["CDISCPILOT01","SE","01-706-1384",6.0,"FOLO","Follow_up","2012-09-29","2013-06-22",""],["CDISCPILOT01","SE","01-707-1037",1.0,"SCRN","Screen","2013-12-12","2013-12-20",""],["CDISCPILOT01","SE","01-707-1037",4.0,"LO","Low","2013-12-20","2014-01-08",""],["CDISCPILOT01","SE","01-707-1206",1.0,"SCRN","Screen","2013-10-20","2013-10-28",""],["CDISCPILOT01","SE","01-707-1206",4.0,"PBO","Placebo","2013-10-28","2014-04-27",""],["CDISCPILOT01","SE","01-707-1276",1.0,"SCRN","Screen","2012-10-12","2012-10-29",""],["CDISCPILOT01","SE","01-707-1430",1.0,"SCRN","Screen","2014-02-14","2014-02-15",""],["CDISCPILOT01","SE","01-707-1434",1.0,"SCRN","Screen","2013-07-25","2013-07-29",""],["CDISCPILOT01","SE","01-708-1013",1.0,"SCRN","Screen","2012-10-13","2012-11-09",""],["CDISCPILOT01","SE","01-708-1019",1.0,"SCRN","Screen","2013-12-10","2013-12-20",""],["CDISCPILOT01","SE","01-708-1019",4.0,"LO","Low","2013-12-20","2014-01-23",""],["CDISCPILOT01","SE","01-708-1032",1.0,"SCRN","Screen","2013-02-02","2013-02-09",""],["CDISCPILOT01","SE","01-708-1032",4.0,"LO","Low","2013-02-09","2013-03-09",""],["CDISCPILOT01","SE","01-708-1054",1.0,"SCRN","Screen","2014-02-14","2014-03-05",""],["CDISCPILOT01","SE","01-708-1067",1.0,"SCRN","Screen","2013-02-07","2013-03-07",""],["CDISCPILOT01","SE","01-708-1067",2.0,"UNPLAN","","2013-03-07","2013-03-07","Unknown reason for Visit 4"],["CDISCPILOT01","SE","01-708-1084",1.0,"SCRN","Screen","2013-05-01","2013-05-09",""],["CDISCPILOT01","SE","01-708-1084",4.0,"LO","Low","2013-05-09","2013-11-11",""],["CDISCPILOT01","SE","01-708-1087",1.0,"SCRN","Screen","2012-10-06","2012-10-22",""],["CDISCPILOT01","SE","01-708-1087",4.0,"PBO","Placebo","2012-10-22","2013-04-28",""],["CDISCPILOT01","SE","01-708-1104",1.0,"SCRN","Screen","2014-01-23","2014-01-23",""],["CDISCPILOT01","SE","01-708-1158",1.0,"SCRN","Screen","2014-02-01","2014-02-08",""],["CDISCPILOT01","SE","01-708-1158",4.0,"PBO","Placebo","2014-02-08","2014-03-22",""],["CDISCPILOT01","SE","01-708-1171",1.0,"SCRN","Screen","2012-11-25","2012-12-06",""],["CDISCPILOT01","SE","01-708-1171",4.0,"PBO","Placebo","2012-12-06","2013-06-04",""],["CDISCPILOT01","SE","01-708-1178",1.0,"SCRN","Screen","2013-12-13","2013-12-29",""],["CDISCPILOT01","SE","01-708-1178",3.0,"HIS","High_Start","2013-12-29","2014-01-18",""],["CDISCPILOT01","SE","01-708-1178",4.0,"HIM","High_Middle","2014-01-18","2014-04-06",""],["CDISCPILOT01","SE","01-708-1184",1.0,"SCRN","Screen","2013-01-14","2013-02-03",""],["CDISCPILOT01","SE","01-708-1213",1.0,"SCRN","Screen","2013-02-01","2013-02-09",""],["CDISCPILOT01","SE","01-708-1213",3.0,"HIS","High_Start","2013-02-09","2013-02-22",""],["CDISCPILOT01","SE","01-708-1213",4.0,"HIM","High_Middle","2013-02-22","2013-02-26",""],["CDISCPILOT01","SE","01-708-1216",1.0,"SCRN","Screen","2012-10-14","2012-10-24",""],["CDISCPILOT01","SE","01-708-1216",3.0,"HIS","High_Start","2012-10-24","2012-11-08",""],["CDISCPILOT01","SE","01-708-1216",4.0,"HIM","High_Middle","2012-11-08","2012-12-06",""],["CDISCPILOT01","SE","01-708-1216",6.0,"FOLO","Follow_up","2012-12-06","2013-01-09",""],["CDISCPILOT01","SE","01-708-1236",1.0,"SCRN","Screen","2013-09-08","2013-09-21",""],["CDISCPILOT01","SE","01-708-1236",3.0,"HIS","High_Start","2013-09-21","2013-09-26",""],["CDISCPILOT01","SE","01-708-1242",1.0,"SCRN","Screen","2012-08-13","2012-08-13",""],["CDISCPILOT01","SE","01-708-1253",1.0,"SCRN","Screen","2013-04-26","2013-05-07",""],["CDISCPILOT01","SE","01-708-1253",4.0,"PBO","Placebo","2013-05-07","2013-11-05",""],["CDISCPILOT01","SE","01-708-1272",1.0,"SCRN","Screen","2013-01-22","2013-02-06",""],["CDISCPILOT01","SE","01-708-1272",4.0,"LO","Low","2013-02-06","2013-04-04",""],["CDISCPILOT01","SE","01-708-1286",1.0,"SCRN","Screen","2013-08-25","2013-09-10",""],["CDISCPILOT01","SE","01-708-1286",4.0,"PBO","Placebo","2013-09-10","2014-03-08",""],["CDISCPILOT01","SE","01-708-1296",1.0,"SCRN","Screen","2013-06-07","2013-06-14",""],["CDISCPILOT01","SE","01-708-1296",4.0,"PBO","Placebo","2013-06-14","2013-12-12",""],["CDISCPILOT01","SE","01-708-1297",1.0,"SCRN","Screen","2013-01-15","2013-01-25",""],["CDISCPILOT01","SE","01-708-1297",4.0,"LO","Low","2013-01-25","2013-05-08",""],["CDISCPILOT01","SE","01-708-1297",6.0,"FOLO","Follow_up","2013-05-08","2013-06-07",""],["CDISCPILOT01","SE","01-708-1316",1.0,"SCRN","Screen","2013-08-15","2013-08-23",""],["CDISCPILOT01","SE","01-708-1316",4.0,"PBO","Placebo","2013-08-23","2014-03-01",""],["CDISCPILOT01","SE","01-708-1336",1.0,"SCRN","Screen","2012-11-21","2012-12-07",""],["CDISCPILOT01","SE","01-708-1336",3.0,"HIS","High_Start","2012-12-07","2012-12-21",""],["CDISCPILOT01","SE","01-708-1336",4.0,"HIM","High_Middle","2012-12-21","2013-05-22",""],["CDISCPILOT01","SE","01-708-1336",5.0,"HIE","High_End","2013-05-22","2013-06-05",""],["CDISCPILOT01","SE","01-708-1336",6.0,"FOLO","Follow_up","2013-06-05","2013-07-05",""],["CDISCPILOT01","SE","01-708-1342",1.0,"SCRN","Screen","2012-12-21","2012-12-29",""],["CDISCPILOT01","SE","01-708-1342",4.0,"PBO","Placebo","2012-12-29","2013-06-28",""],["CDISCPILOT01","SE","01-708-1347",1.0,"SCRN","Screen","2013-04-11","2013-04-20",""],["CDISCPILOT01","SE","01-708-1347",3.0,"HIS","High_Start","2013-04-20","2013-05-04",""],["CDISCPILOT01","SE","01-708-1347",4.0,"HIM","High_Middle","2013-05-04","2013-06-18",""],["CDISCPILOT01","SE","01-708-1347",6.0,"FOLO","Follow_up","2013-06-18","2013-08-02",""],["CDISCPILOT01","SE","01-708-1348",1.0,"SCRN","Screen","2013-07-28","2013-08-05",""],["CDISCPILOT01","SE","01-708-1348",4.0,"LO","Low","2013-08-05","2014-02-13",""],["CDISCPILOT01","SE","01-708-1352",1.0,"SCRN","Screen","2013-09-16","2013-09-29",""],["CDISCPILOT01","SE","01-708-1353",1.0,"SCRN","Screen","2013-06-17","2013-07-04",""],["CDISCPILOT01","SE","01-708-1353",4.0,"LO","Low","2013-07-04","2013-09-10",""],["CDISCPILOT01","SE","01-708-1372",1.0,"SCRN","Screen","2013-04-03","2013-04-12",""],["CDISCPILOT01","SE","01-708-1372",3.0,"HIS","High_Start","2013-04-12","2013-05-10",""],["CDISCPILOT01","SE","01-708-1378",1.0,"SCRN","Screen","2013-08-24","2013-09-03",""],["CDISCPILOT01","SE","01-708-1378",4.0,"PBO","Placebo","2013-09-03","2014-01-28",""],["CDISCPILOT01","SE","01-708-1406",1.0,"SCRN","Screen","2013-12-06","2013-12-26",""],["CDISCPILOT01","SE","01-708-1406",3.0,"HIS","High_Start","2013-12-26","2014-01-09",""],["CDISCPILOT01","SE","01-708-1406",4.0,"HIM","High_Middle","2014-01-09","2014-06-16",""],["CDISCPILOT01","SE","01-708-1406",5.0,"HIE","High_End","2014-06-16","2014-07-02",""],["CDISCPILOT01","SE","01-708-1428",1.0,"SCRN","Screen","2013-11-02","2013-11-09",""],["CDISCPILOT01","SE","01-708-1428",4.0,"LO","Low","2013-11-09","2014-01-31",""],["CDISCPILOT01","SE","01-708-1428",6.0,"FOLO","Follow_up","2014-01-31","2014-01-31",""],["CDISCPILOT01","SE","01-709-1001",1.0,"SCRN","Screen","2013-09-20","2013-10-08",""],["CDISCPILOT01","SE","01-709-1001",4.0,"PBO","Placebo","2013-10-08","2014-04-08",""],["CDISCPILOT01","SE","01-709-1007",1.0,"SCRN","Screen","2012-07-21","2012-07-31",""],["CDISCPILOT01","SE","01-709-1007",4.0,"LO","Low","2012-07-31","2012-09-01",""],["CDISCPILOT01","SE","01-709-1007",6.0,"FOLO","Follow_up","2012-09-01","2012-09-07",""],["CDISCPILOT01","SE","01-709-1020",1.0,"SCRN","Screen","2012-11-22","2012-12-01",""],["CDISCPILOT01","SE","01-709-1020",4.0,"LO","Low","2012-12-01","2013-06-01",""],["CDISCPILOT01","SE","01-709-1029",1.0,"SCRN","Screen","2012-12-10","2012-12-25",""],["CDISCPILOT01","SE","01-709-1029",3.0,"HIS","High_Start","2012-12-25","2013-01-09",""],["CDISCPILOT01","SE","01-709-1029",4.0,"HIM","High_Middle","2013-01-09","2013-06-12",""],["CDISCPILOT01","SE","01-709-1029",5.0,"HIE","High_End","2013-06-12","2013-06-26",""],["CDISCPILOT01","SE","01-709-1081",1.0,"SCRN","Screen","2014-01-09","2014-01-18",""],["CDISCPILOT01","SE","01-709-1081",4.0,"LO","Low","2014-01-18","2014-05-10",""],["CDISCPILOT01","SE","01-709-1088",1.0,"SCRN","Screen","2014-03-30","2014-04-12",""],["CDISCPILOT01","SE","01-709-1088",4.0,"PBO","Placebo","2014-04-12","2014-10-09",""],["CDISCPILOT01","SE","01-709-1099",1.0,"SCRN","Screen","2013-10-14","2013-10-25",""],["CDISCPILOT01","SE","01-709-1099",3.0,"HIS","High_Start","2013-10-25","2013-11-12",""],["CDISCPILOT01","SE","01-709-1099",4.0,"HIM","High_Middle","2013-11-12","2014-04-11",""],["CDISCPILOT01","SE","01-709-1099",5.0,"HIE","High_End","2014-04-11","2014-04-25",""],["CDISCPILOT01","SE","01-709-1102",1.0,"SCRN","Screen","2013-01-07","2013-01-15",""],["CDISCPILOT01","SE","01-709-1102",4.0,"LO","Low","2013-01-15","2013-03-31",""],["CDISCPILOT01","SE","01-709-1102",6.0,"FOLO","Follow_up","2013-03-31","2013-05-12",""],["CDISCPILOT01","SE","01-709-1168",1.0,"SCRN","Screen","2013-07-25","2013-08-02",""],["CDISCPILOT01","SE","01-709-1168",3.0,"HIS","High_Start","2013-08-02","2013-08-17",""],["CDISCPILOT01","SE","01-709-1168",4.0,"HIM","High_Middle","2013-08-17","2013-09-27",""],["CDISCPILOT01","SE","01-709-1168",6.0,"FOLO","Follow_up","2013-09-27","2013-11-01",""],["CDISCPILOT01","SE","01-709-1217",1.0,"SCRN","Screen","2013-02-16","2013-03-04",""],["CDISCPILOT01","SE","01-709-1217",4.0,"LO","Low","2013-03-04","2013-06-25",""],["CDISCPILOT01","SE","01-709-1224",1.0,"SCRN","Screen","2013-11-18","2013-11-24",""],["CDISCPILOT01","SE","01-709-1237",1.0,"SCRN","Screen","2014-01-17","2014-03-04",""],["CDISCPILOT01","SE","01-709-1238",1.0,"SCRN","Screen","2013-05-02","2013-05-15",""],["CDISCPILOT01","SE","01-709-1238",3.0,"HIS","High_Start","2013-05-15","2013-05-29",""],["CDISCPILOT01","SE","01-709-1238",4.0,"HIM","High_Middle","2013-05-29","2013-08-07",""],["CDISCPILOT01","SE","01-709-1238",6.0,"FOLO","Follow_up","2013-08-07","2013-08-13",""],["CDISCPILOT01","SE","01-709-1259",1.0,"SCRN","Screen","2013-01-13","2013-01-26",""],["CDISCPILOT01","SE","01-709-1259",4.0,"PBO","Placebo","2013-01-26","2013-06-13",""],["CDISCPILOT01","SE","01-709-1285",1.0,"SCRN","Screen","2013-03-17","2013-03-24",""],["CDISCPILOT01","SE","01-709-1285",4.0,"LO","Low","2013-03-24","2013-05-31",""],["CDISCPILOT01","SE","01-709-1301",1.0,"SCRN","Screen","2013-07-14","2013-07-19",""],["CDISCPILOT01","SE","01-709-1301",4.0,"PBO","Placebo","2013-07-19","2014-01-17",""],["CDISCPILOT01","SE","01-709-1306",1.0,"SCRN","Screen","2014-01-19","2014-02-03",""],["CDISCPILOT01","SE","01-709-1306",4.0,"PBO","Placebo","2014-02-03","2014-06-25",""],["CDISCPILOT01","SE","01-709-1309",1.0,"SCRN","Screen","2013-06-09","2013-06-19",""],["CDISCPILOT01","SE","01-709-1309",3.0,"HIS","High_Start","2013-06-19","2013-07-01",""],["CDISCPILOT01","SE","01-709-1309",4.0,"HIM","High_Middle","2013-07-01","2013-12-05",""],["CDISCPILOT01","SE","01-709-1309",5.0,"HIE","High_End","2013-12-05","2013-12-19",""],["CDISCPILOT01","SE","01-709-1312",1.0,"SCRN","Screen","2014-04-13","2014-04-20",""],["CDISCPILOT01","SE","01-709-1312",4.0,"PBO","Placebo","2014-04-20","2014-10-19",""],["CDISCPILOT01","SE","01-709-1326",1.0,"SCRN","Screen","2013-03-21","2013-04-05",""],["CDISCPILOT01","SE","01-709-1326",4.0,"LO","Low","2013-04-05","2013-10-02",""],["CDISCPILOT01","SE","01-709-1329",1.0,"SCRN","Screen","2013-08-01","2013-08-15",""],["CDISCPILOT01","SE","01-709-1329",3.0,"HIS","High_Start","2013-08-15","2013-08-29",""],["CDISCPILOT01","SE","01-709-1339",1.0,"SCRN","Screen","2012-12-15","2012-12-23",""],["CDISCPILOT01","SE","01-709-1339",4.0,"PBO","Placebo","2012-12-23","2013-06-24",""],["CDISCPILOT01","SE","01-709-1424",1.0,"SCRN","Screen","2013-02-15","2013-03-03",""],["CDISCPILOT01","SE","01-709-1424",3.0,"HIS","High_Start","2013-03-03","2013-03-17",""],["CDISCPILOT01","SE","01-709-1424",4.0,"HIM","High_Middle","2013-03-17","2013-03-17",""],["CDISCPILOT01","SE","01-709-1424",6.0,"FOLO","Follow_up","2013-03-17","2013-03-17",""],["CDISCPILOT01","SE","01-710-1002",1.0,"SCRN","Screen","2013-12-30","2014-01-14",""],["CDISCPILOT01","SE","01-710-1002",4.0,"LO","Low","2014-01-14","2014-01-18",""],["CDISCPILOT01","SE","01-710-1002",6.0,"FOLO","Follow_up","2014-01-18","2014-01-20",""],["CDISCPILOT01","SE","01-710-1006",1.0,"SCRN","Screen","2013-01-27","2013-02-10",""],["CDISCPILOT01","SE","01-710-1006",3.0,"HIS","High_Start","2013-02-10","2013-02-22",""],["CDISCPILOT01","SE","01-710-1006",4.0,"HIM","High_Middle","2013-02-22","2013-07-27",""],["CDISCPILOT01","SE","01-710-1006",5.0,"HIE","High_End","2013-07-27","2013-08-10",""],["CDISCPILOT01","SE","01-710-1021",1.0,"SCRN","Screen","2013-09-19","2013-09-27",""],["CDISCPILOT01","SE","01-710-1021",3.0,"HIS","High_Start","2013-09-27","2013-10-11",""],["CDISCPILOT01","SE","01-710-1021",4.0,"HIM","High_Middle","2013-10-11","2013-11-12",""],["CDISCPILOT01","SE","01-710-1021",6.0,"FOLO","Follow_up","2013-11-12","2013-11-22",""],["CDISCPILOT01","SE","01-710-1027",1.0,"SCRN","Screen","2014-02-03","2014-02-28",""],["CDISCPILOT01","SE","01-710-1027",4.0,"PBO","Placebo","2014-02-28","2014-08-29",""],["CDISCPILOT01","SE","01-710-1045",1.0,"SCRN","Screen","2013-05-20","2013-06-03",""],["CDISCPILOT01","SE","01-710-1045",4.0,"LO","Low","2013-06-03","2013-08-17",""],["CDISCPILOT01","SE","01-710-1045",6.0,"FOLO","Follow_up","2013-08-17","2013-09-08",""],["CDISCPILOT01","SE","01-710-1053",1.0,"SCRN","Screen","2012-12-15","2012-12-26",""],["CDISCPILOT01","SE","01-710-1053",4.0,"LO","Low","2012-12-26","2013-02-26",""],["CDISCPILOT01","SE","01-710-1053",6.0,"FOLO","Follow_up","2013-02-26","2013-02-26",""],["CDISCPILOT01","SE","01-710-1060",1.0,"SCRN","Screen","2012-12-24","2013-01-01",""],["CDISCPILOT01","SE","01-710-1060",4.0,"PBO","Placebo","2013-01-01","2013-07-05",""],["CDISCPILOT01","SE","01-710-1070",1.0,"SCRN","Screen","2012-08-28","2012-09-08",""],["CDISCPILOT01","SE","01-710-1070",3.0,"HIS","High_Start","2012-09-08","2012-09-22",""],["CDISCPILOT01","SE","01-710-1070",4.0,"HIM","High_Middle","2012-09-22","2013-02-23",""],["CDISCPILOT01","SE","01-710-1070",6.0,"FOLO","Follow_up","2013-02-23","2013-07-04",""],["CDISCPILOT01","SE","01-710-1077",1.0,"SCRN","Screen","2013-11-03","2013-11-17",""],["CDISCPILOT01","SE","01-710-1077",4.0,"PBO","Placebo","2013-11-17","2014-05-18",""],["CDISCPILOT01","SE","01-710-1078",1.0,"SCRN","Screen","2013-09-06","2013-09-17",""],["CDISCPILOT01","SE","01-710-1078",4.0,"PBO","Placebo","2013-09-17","2014-03-23",""],["CDISCPILOT01","SE","01-710-1083",1.0,"SCRN","Screen","2013-07-09","2013-07-22",""],["CDISCPILOT01","SE","01-710-1083",4.0,"PBO","Placebo","2013-07-22","2013-08-03",""],["CDISCPILOT01","SE","01-710-1129",1.0,"SCRN","Screen","2013-03-05","2013-03-17",""],["CDISCPILOT01","SE","01-710-1137",1.0,"SCRN","Screen","2013-10-03","2013-10-11",""],["CDISCPILOT01","SE","01-710-1137",3.0,"HIS","High_Start","2013-10-11","2013-10-25",""],["CDISCPILOT01","SE","01-710-1137",4.0,"HIM","High_Middle","2013-10-25","2013-11-13",""],["CDISCPILOT01","SE","01-710-1137",6.0,"FOLO","Follow_up","2013-11-13","2013-11-25",""],["CDISCPILOT01","SE","01-710-1142",1.0,"SCRN","Screen","2012-09-12","2012-10-02",""],["CDISCPILOT01","SE","01-710-1142",3.0,"HIS","High_Start","2012-10-02","2012-10-16",""],["CDISCPILOT01","SE","01-710-1142",4.0,"HIM","High_Middle","2012-10-16","2012-10-23",""],["CDISCPILOT01","SE","01-710-1142",6.0,"FOLO","Follow_up","2012-10-23","2012-10-28",""],["CDISCPILOT01","SE","01-710-1149",1.0,"SCRN","Screen","2013-11-16","2013-12-01",""],["CDISCPILOT01","SE","01-710-1154",1.0,"SCRN","Screen","2014-03-08","2014-03-29",""],["CDISCPILOT01","SE","01-710-1154",4.0,"LO","Low","2014-03-29","2014-05-09",""],["CDISCPILOT01","SE","01-710-1154",6.0,"FOLO","Follow_up","2014-05-09","2014-06-13",""],["CDISCPILOT01","SE","01-710-1166",1.0,"SCRN","Screen","2012-11-10","2012-11-30",""],["CDISCPILOT01","SE","01-710-1166",4.0,"LO","Low","2012-11-30","2013-03-30",""],["CDISCPILOT01","SE","01-710-1166",6.0,"FOLO","Follow_up","2013-03-30","2013-05-22",""],["CDISCPILOT01","SE","01-710-1183",1.0,"SCRN","Screen","2013-10-24","2013-11-16",""],["CDISCPILOT01","SE","01-710-1183",4.0,"PBO","Placebo","2013-11-16","2014-05-17",""],["CDISCPILOT01","SE","01-710-1187",1.0,"SCRN","Screen","2012-10-26","2012-11-10",""],["CDISCPILOT01","SE","01-710-1187",3.0,"HIS","High_Start","2012-11-10","2012-11-24",""],["CDISCPILOT01","SE","01-710-1187",4.0,"HIM","High_Middle","2012-11-24","2013-04-28",""],["CDISCPILOT01","SE","01-710-1187",5.0,"HIE","High_End","2013-04-28","2013-05-12",""],["CDISCPILOT01","SE","01-710-1235",1.0,"SCRN","Screen","2012-09-13","2012-09-26",""],["CDISCPILOT01","SE","01-710-1235",4.0,"LO","Low","2012-09-26","2013-03-27",""],["CDISCPILOT01","SE","01-710-1249",1.0,"SCRN","Screen","2013-12-19","2013-12-28",""],["CDISCPILOT01","SE","01-710-1249",3.0,"HIS","High_Start","2013-12-28","2014-01-11",""],["CDISCPILOT01","SE","01-710-1249",4.0,"HIM","High_Middle","2014-01-11","2014-06-14",""],["CDISCPILOT01","SE","01-710-1249",5.0,"HIE","High_End","2014-06-14","2014-06-28",""],["CDISCPILOT01","SE","01-710-1257",1.0,"SCRN","Screen","2013-11-29","2013-12-11",""],["CDISCPILOT01","SE","01-710-1264",1.0,"SCRN","Screen","2013-06-02","2013-06-13",""],["CDISCPILOT01","SE","01-710-1264",4.0,"PBO","Placebo","2013-06-13","2013-10-12",""],["CDISCPILOT01","SE","01-710-1264",6.0,"FOLO","Follow_up","2013-10-12","2013-11-05",""],["CDISCPILOT01","SE","01-710-1270",1.0,"SCRN","Screen","2014-02-01","2014-02-12",""],["CDISCPILOT01","SE","01-710-1270",4.0,"LO","Low","2014-02-12","2014-03-01",""],["CDISCPILOT01","SE","01-710-1270",6.0,"FOLO","Follow_up","2014-03-01","2014-03-26",""],["CDISCPILOT01","SE","01-710-1271",1.0,"SCRN","Screen","2012-09-04","2012-09-27",""],["CDISCPILOT01","SE","01-710-1271",4.0,"PBO","Placebo","2012-09-27","2012-12-02",""],["CDISCPILOT01","SE","01-710-1271",6.0,"FOLO","Follow_up","2012-12-02","2012-12-09",""],["CDISCPILOT01","SE","01-710-1278",1.0,"SCRN","Screen","2012-12-13","2012-12-24",""],["CDISCPILOT01","SE","01-710-1278",3.0,"HIS","High_Start","2012-12-24","2013-01-07",""],["CDISCPILOT01","SE","01-710-1278",4.0,"HIM","High_Middle","2013-01-07","2013-03-03",""],["CDISCPILOT01","SE","01-710-1278",6.0,"FOLO","Follow_up","2013-03-03","2013-03-10",""],["CDISCPILOT01","SE","01-710-1300",1.0,"SCRN","Screen","2012-12-04","2012-12-15",""],["CDISCPILOT01","SE","01-710-1300",4.0,"LO","Low","2012-12-15","2013-02-19",""],["CDISCPILOT01","SE","01-710-1300",6.0,"FOLO","Follow_up","2013-02-19","2013-03-19",""],["CDISCPILOT01","SE","01-710-1314",1.0,"SCRN","Screen","2013-04-21","2013-04-24",""],["CDISCPILOT01","SE","01-710-1314",4.0,"PBO","Placebo","2013-04-24","2013-05-25",""],["CDISCPILOT01","SE","01-710-1315",1.0,"SCRN","Screen","2013-02-12","2013-02-27",""],["CDISCPILOT01","SE","01-710-1315",4.0,"PBO","Placebo","2013-02-27","2013-07-16",""],["CDISCPILOT01","SE","01-710-1315",6.0,"FOLO","Follow_up","2013-07-16","2013-09-02",""],["CDISCPILOT01","SE","01-710-1337",1.0,"SCRN","Screen","2013-12-30","2014-01-26",""],["CDISCPILOT01","SE","01-710-1337",2.0,"UNPLAN","","2014-01-26","2014-01-26","Unknown reason for Visit 4"],["CDISCPILOT01","SE","01-710-1354",1.0,"SCRN","Screen","2012-10-29","2012-11-11",""],["CDISCPILOT01","SE","01-710-1354",3.0,"HIS","High_Start","2012-11-11","2012-11-25",""],["CDISCPILOT01","SE","01-710-1354",4.0,"HIM","High_Middle","2012-11-25","2013-04-21",""],["CDISCPILOT01","SE","01-710-1354",5.0,"HIE","High_End","2013-04-21","2013-05-01",""],["CDISCPILOT01","SE","01-710-1358",1.0,"SCRN","Screen","2012-09-02","2012-09-17",""],["CDISCPILOT01","SE","01-710-1358",4.0,"LO","Low","2012-09-17","2013-03-12",""],["CDISCPILOT01","SE","01-710-1368",1.0,"SCRN","Screen","2013-10-21","2013-10-23",""],["CDISCPILOT01","SE","01-710-1368",4.0,"PBO","Placebo","2013-10-23","2014-04-24",""],["CDISCPILOT01","SE","01-710-1376",1.0,"SCRN","Screen","2014-04-21","2014-05-02",""],["CDISCPILOT01","SE","01-710-1380",1.0,"SCRN","Screen","2013-06-02","2013-06-12",""],["CDISCPILOT01","SE","01-710-1385",1.0,"SCRN","Screen","2012-10-21","2012-10-29",""],["CDISCPILOT01","SE","01-710-1385",4.0,"LO","Low","2012-10-29","2013-02-24",""],["CDISCPILOT01","SE","01-710-1385",6.0,"FOLO","Follow_up","2013-02-24","2013-02-24",""],["CDISCPILOT01","SE","01-710-1408",1.0,"SCRN","Screen","2012-12-26","2013-01-05",""],["CDISCPILOT01","SE","01-710-1408",3.0,"HIS","High_Start","2013-01-05","2013-01-24",""],["CDISCPILOT01","SE","01-710-1408",4.0,"HIM","High_Middle","2013-01-24","2013-06-28",""],["CDISCPILOT01","SE","01-710-1408",5.0,"HIE","High_End","2013-06-28","2013-07-12",""],["CDISCPILOT01","SE","01-710-1443",1.0,"SCRN","Screen","2013-12-13","2013-12-14",""],["CDISCPILOT01","SE","01-711-1012",1.0,"SCRN","Screen","2013-03-20","2013-04-03",""],["CDISCPILOT01","SE","01-711-1012",3.0,"HIS","High_Start","2013-04-03","2013-04-17",""],["CDISCPILOT01","SE","01-711-1012",4.0,"HIM","High_Middle","2013-04-17","2013-05-02",""],["CDISCPILOT01","SE","01-711-1012",6.0,"FOLO","Follow_up","2013-05-02","2013-09-18",""],["CDISCPILOT01","SE","01-711-1022",1.0,"SCRN","Screen","2014-03-17","2014-03-17",""],["CDISCPILOT01","SE","01-711-1036",1.0,"SCRN","Screen","2012-07-20","2012-07-29",""],["CDISCPILOT01","SE","01-711-1036",4.0,"PBO","Placebo","2012-07-29","2013-02-10",""],["CDISCPILOT01","SE","01-711-1143",1.0,"SCRN","Screen","2013-03-30","2013-04-03",""],["CDISCPILOT01","SE","01-711-1143",4.0,"LO","Low","2013-04-03","2013-09-22",""],["CDISCPILOT01","SE","01-711-1143",6.0,"FOLO","Follow_up","2013-09-22","2013-09-22",""],["CDISCPILOT01","SE","01-711-1163",1.0,"SCRN","Screen","2012-11-08","2012-11-08",""],["CDISCPILOT01","SE","01-711-1173",1.0,"SCRN","Screen","2012-10-04","2012-10-04",""],["CDISCPILOT01","SE","01-711-1226",1.0,"SCRN","Screen","2013-10-24","2013-10-24",""],["CDISCPILOT01","SE","01-711-1251",1.0,"SCRN","Screen","2014-02-28","2014-02-28",""],["CDISCPILOT01","SE","01-711-1283",1.0,"SCRN","Screen","2014-03-27","2014-03-27",""],["CDISCPILOT01","SE","01-711-1284",1.0,"SCRN","Screen","2013-08-05","2013-08-05",""],["CDISCPILOT01","SE","01-711-1290",1.0,"SCRN","Screen","2013-12-20","2013-12-20",""],["CDISCPILOT01","SE","01-711-1433",1.0,"SCRN","Screen","2013-01-23","2013-01-27",""],["CDISCPILOT01","SE","01-711-1433",3.0,"HIS","High_Start","2013-01-27","2013-02-06",""],["CDISCPILOT01","SE","01-713-1043",1.0,"SCRN","Screen","2013-08-17","2013-09-15",""],["CDISCPILOT01","SE","01-713-1043",4.0,"LO","Low","2013-09-15","2014-03-24",""],["CDISCPILOT01","SE","01-713-1073",1.0,"SCRN","Screen","2014-03-15","2014-03-30",""],["CDISCPILOT01","SE","01-713-1073",4.0,"LO","Low","2014-03-30","2014-10-05",""],["CDISCPILOT01","SE","01-713-1106",1.0,"SCRN","Screen","2012-10-03","2012-10-31",""],["CDISCPILOT01","SE","01-713-1106",3.0,"HIS","High_Start","2012-10-31","2012-11-15",""],["CDISCPILOT01","SE","01-713-1106",4.0,"HIM","High_Middle","2012-11-15","2013-04-22",""],["CDISCPILOT01","SE","01-713-1106",5.0,"HIE","High_End","2013-04-22","2013-05-06",""],["CDISCPILOT01","SE","01-713-1141",1.0,"SCRN","Screen","2013-05-23","2013-05-31",""],["CDISCPILOT01","SE","01-713-1141",3.0,"HIS","High_Start","2013-05-31","2013-06-14",""],["CDISCPILOT01","SE","01-713-1141",4.0,"HIM","High_Middle","2013-06-14","2013-08-06",""],["CDISCPILOT01","SE","01-713-1179",1.0,"SCRN","Screen","2013-07-11","2013-08-09",""],["CDISCPILOT01","SE","01-713-1179",4.0,"PBO","Placebo","2013-08-09","2014-02-05",""],["CDISCPILOT01","SE","01-713-1209",1.0,"SCRN","Screen","2013-05-16","2013-05-27",""],["CDISCPILOT01","SE","01-713-1209",3.0,"HIS","High_Start","2013-05-27","2013-06-14",""],["CDISCPILOT01","SE","01-713-1209",4.0,"HIM","High_Middle","2013-06-14","2013-11-14",""],["CDISCPILOT01","SE","01-713-1209",5.0,"HIE","High_End","2013-11-14","2013-11-22",""],["CDISCPILOT01","SE","01-713-1256",1.0,"SCRN","Screen","2012-09-10","2012-09-19",""],["CDISCPILOT01","SE","01-713-1256",4.0,"PBO","Placebo","2012-09-19","2013-03-25",""],["CDISCPILOT01","SE","01-713-1269",1.0,"SCRN","Screen","2014-01-14","2014-01-27",""],["CDISCPILOT01","SE","01-713-1269",4.0,"PBO","Placebo","2014-01-27","2014-07-28",""],["CDISCPILOT01","SE","01-713-1448",1.0,"SCRN","Screen","2014-01-05","2014-01-19",""],["CDISCPILOT01","SE","01-713-1448",4.0,"LO","Low","2014-01-19","2014-05-17",""],["CDISCPILOT01","SE","01-713-1448",6.0,"FOLO","Follow_up","2014-05-17","2014-07-27",""],["CDISCPILOT01","SE","01-714-1035",1.0,"SCRN","Screen","2014-04-03","2014-04-17",""],["CDISCPILOT01","SE","01-714-1035",4.0,"PBO","Placebo","2014-04-17","2014-10-16",""],["CDISCPILOT01","SE","01-714-1068",1.0,"SCRN","Screen","2013-07-31","2013-08-08",""],["CDISCPILOT01","SE","01-714-1068",4.0,"LO","Low","2013-08-08","2013-10-16",""],["CDISCPILOT01","SE","01-714-1068",6.0,"FOLO","Follow_up","2013-10-16","2013-10-23",""],["CDISCPILOT01","SE","01-714-1195",1.0,"SCRN","Screen","2013-04-16","2013-04-26",""],["CDISCPILOT01","SE","01-714-1195",4.0,"LO","Low","2013-04-26","2013-10-23",""],["CDISCPILOT01","SE","01-714-1288",1.0,"SCRN","Screen","2013-11-24","2013-12-04",""],["CDISCPILOT01","SE","01-714-1288",3.0,"HIS","High_Start","2013-12-04","2013-12-17",""],["CDISCPILOT01","SE","01-714-1288",4.0,"HIM","High_Middle","2013-12-17","2014-05-27",""],["CDISCPILOT01","SE","01-714-1288",5.0,"HIE","High_End","2014-05-27","2014-06-17",""],["CDISCPILOT01","SE","01-714-1375",1.0,"SCRN","Screen","2013-02-23","2013-02-26",""],["CDISCPILOT01","SE","01-714-1375",4.0,"PBO","Placebo","2013-02-26","2013-09-07",""],["CDISCPILOT01","SE","01-714-1425",1.0,"SCRN","Screen","2013-08-11","2013-08-15",""],["CDISCPILOT01","SE","01-714-1425",3.0,"HIS","High_Start","2013-08-15","2013-08-22",""],["CDISCPILOT01","SE","01-715-1085",1.0,"SCRN","Screen","2013-02-03","2013-02-16",""],["CDISCPILOT01","SE","01-715-1085",4.0,"LO","Low","2013-02-16","2013-08-18",""],["CDISCPILOT01","SE","01-715-1107",1.0,"SCRN","Screen","2013-02-12","2013-02-26",""],["CDISCPILOT01","SE","01-715-1107",4.0,"LO","Low","2013-02-26","2013-05-13",""],["CDISCPILOT01","SE","01-715-1107",6.0,"FOLO","Follow_up","2013-05-13","2013-08-14",""],["CDISCPILOT01","SE","01-715-1134",1.0,"SCRN","Screen","2014-04-17","2014-05-21",""],["CDISCPILOT01","SE","01-715-1134",2.0,"UNPLAN","","2014-05-21","2014-05-21","Unknown reason for Visit 4"],["CDISCPILOT01","SE","01-715-1155",1.0,"SCRN","Screen","2013-11-29","2013-12-13",""],["CDISCPILOT01","SE","01-715-1155",4.0,"PBO","Placebo","2013-12-13","2014-04-26",""],["CDISCPILOT01","SE","01-715-1155",6.0,"FOLO","Follow_up","2014-04-26","2014-04-26",""],["CDISCPILOT01","SE","01-715-1207",1.0,"SCRN","Screen","2012-11-12","2012-11-18",""],["CDISCPILOT01","SE","01-715-1207",4.0,"PBO","Placebo","2012-11-18","2013-06-01",""],["CDISCPILOT01","SE","01-715-1225",1.0,"SCRN","Screen","2013-01-22","2013-05-07",""],["CDISCPILOT01","SE","01-715-1319",1.0,"SCRN","Screen","2013-02-03","2013-02-17",""],["CDISCPILOT01","SE","01-715-1319",3.0,"HIS","High_Start","2013-02-17","2013-03-03",""],["CDISCPILOT01","SE","01-715-1319",4.0,"HIM","High_Middle","2013-03-03","2013-03-18",""],["CDISCPILOT01","SE","01-715-1321",1.0,"SCRN","Screen","2014-02-06","2014-02-11",""],["CDISCPILOT01","SE","01-715-1321",3.0,"HIS","High_Start","2014-02-11","2014-02-26",""],["CDISCPILOT01","SE","01-715-1321",4.0,"HIM","High_Middle","2014-02-26","2014-04-22",""],["CDISCPILOT01","SE","01-715-1333",1.0,"SCRN","Screen","2013-06-03","2013-11-03",""],["CDISCPILOT01","SE","01-715-1397",1.0,"SCRN","Screen","2013-03-20","2013-04-03",""],["CDISCPILOT01","SE","01-715-1397",4.0,"PBO","Placebo","2013-04-03","2013-10-03",""],["CDISCPILOT01","SE","01-715-1405",1.0,"SCRN","Screen","2013-06-27","2013-07-06",""],["CDISCPILOT01","SE","01-715-1405",4.0,"LO","Low","2013-07-06","2013-07-13",""],["CDISCPILOT01","SE","01-715-1405",6.0,"FOLO","Follow_up","2013-07-13","2014-01-11",""],["CDISCPILOT01","SE","01-715-1407",1.0,"SCRN","Screen","2012-10-24","2013-02-07",""],["CDISCPILOT01","SE","01-716-1003",1.0,"SCRN","Screen","2014-03-29","2014-03-29",""],["CDISCPILOT01","SE","01-716-1024",1.0,"SCRN","Screen","2012-07-06","2012-07-09",""],["CDISCPILOT01","SE","01-716-1024",4.0,"PBO","Placebo","2012-07-09","2013-01-20",""],["CDISCPILOT01","SE","01-716-1026",1.0,"SCRN","Screen","2014-03-23","2014-04-02",""],["CDISCPILOT01","SE","01-716-1026",4.0,"PBO","Placebo","2014-04-02","2014-10-16",""],["CDISCPILOT01","SE","01-716-1030",1.0,"SCRN","Screen","2013-12-25","2013-12-28",""],["CDISCPILOT01","SE","01-716-1030",3.0,"HIS","High_Start","2013-12-28","2014-01-10",""],["CDISCPILOT01","SE","01-716-1044",1.0,"SCRN","Screen","2013-04-20","2013-04-27",""],["CDISCPILOT01","SE","01-716-1044",4.0,"PBO","Placebo","2013-04-27","2013-11-03",""],["CDISCPILOT01","SE","01-716-1061",1.0,"SCRN","Screen","2014-02-14","2014-02-14",""],["CDISCPILOT01","SE","01-716-1063",1.0,"SCRN","Screen","2013-05-06","2013-05-09",""],["CDISCPILOT01","SE","01-716-1063",4.0,"LO","Low","2013-05-09","2013-08-28",""],["CDISCPILOT01","SE","01-716-1063",6.0,"FOLO","Follow_up","2013-08-28","2013-11-17",""],["CDISCPILOT01","SE","01-716-1071",1.0,"SCRN","Screen","2013-06-03","2013-06-08",""],["CDISCPILOT01","SE","01-716-1071",3.0,"HIS","High_Start","2013-06-08","2013-06-22",""],["CDISCPILOT01","SE","01-716-1071",4.0,"HIM","High_Middle","2013-06-22","2013-08-01",""],["CDISCPILOT01","SE","01-716-1071",6.0,"FOLO","Follow_up","2013-08-01","2013-12-16",""],["CDISCPILOT01","SE","01-716-1094",1.0,"SCRN","Screen","2012-12-16","2012-12-19",""],["CDISCPILOT01","SE","01-716-1094",4.0,"LO","Low","2012-12-19","2013-01-26",""],["CDISCPILOT01","SE","01-716-1094",6.0,"FOLO","Follow_up","2013-01-26","2013-06-22",""],["CDISCPILOT01","SE","01-716-1103",1.0,"SCRN","Screen","2014-03-18","2014-03-20",""],["CDISCPILOT01","SE","01-716-1103",4.0,"LO","Low","2014-03-20","2014-09-20",""],["CDISCPILOT01","SE","01-716-1108",1.0,"SCRN","Screen","2013-02-04","2013-02-12",""],["CDISCPILOT01","SE","01-716-1108",4.0,"PBO","Placebo","2013-02-12","2013-08-10",""],["CDISCPILOT01","SE","01-716-1151",1.0,"SCRN","Screen","2013-01-23","2013-02-01",""],["CDISCPILOT01","SE","01-716-1151",4.0,"LO","Low","2013-02-01","2013-06-07",""],["CDISCPILOT01","SE","01-716-1151",6.0,"FOLO","Follow_up","2013-06-07","2013-08-13",""],["CDISCPILOT01","SE","01-716-1157",1.0,"SCRN","Screen","2013-09-23","2013-10-02",""],["CDISCPILOT01","SE","01-716-1157",4.0,"LO","Low","2013-10-02","2014-04-05",""],["CDISCPILOT01","SE","01-716-1160",1.0,"SCRN","Screen","2013-03-23","2013-04-05",""],["CDISCPILOT01","SE","01-716-1160",4.0,"PBO","Placebo","2013-04-05","2013-10-11",""],["CDISCPILOT01","SE","01-716-1167",1.0,"SCRN","Screen","2012-09-30","2012-10-08",""],["CDISCPILOT01","SE","01-716-1167",4.0,"LO","Low","2012-10-08","2013-04-13",""],["CDISCPILOT01","SE","01-716-1177",1.0,"SCRN","Screen","2014-08-29","2014-09-02",""],["CDISCPILOT01","SE","01-716-1177",4.0,"PBO","Placebo","2014-09-02","2015-03-05",""],["CDISCPILOT01","SE","01-716-1189",1.0,"SCRN","Screen","2012-10-07","2012-10-09",""],["CDISCPILOT01","SE","01-716-1189",3.0,"HIS","High_Start","2012-10-09","2012-10-24",""],["CDISCPILOT01","SE","01-716-1189",4.0,"HIM","High_Middle","2012-10-24","2013-03-03",""],["CDISCPILOT01","SE","01-716-1189",6.0,"FOLO","Follow_up","2013-03-03","2013-04-08",""],["CDISCPILOT01","SE","01-716-1229",1.0,"SCRN","Screen","2013-02-14","2013-02-20",""],["CDISCPILOT01","SE","01-716-1229",3.0,"HIS","High_Start","2013-02-20","2013-03-06",""],["CDISCPILOT01","SE","01-716-1229",4.0,"HIM","High_Middle","2013-03-06","2013-04-02",""],["CDISCPILOT01","SE","01-716-1229",6.0,"FOLO","Follow_up","2013-04-02","2013-04-02",""],["CDISCPILOT01","SE","01-716-1244",1.0,"SCRN","Screen","2013-08-15","2013-09-03",""],["CDISCPILOT01","SE","01-716-1298",1.0,"SCRN","Screen","2013-04-04","2013-04-08",""],["CDISCPILOT01","SE","01-716-1298",4.0,"LO","Low","2013-04-08","2013-07-06",""],["CDISCPILOT01","SE","01-716-1298",6.0,"FOLO","Follow_up","2013-07-06","2013-10-07",""],["CDISCPILOT01","SE","01-716-1305",1.0,"SCRN","Screen","2013-08-06","2013-08-26",""],["CDISCPILOT01","SE","01-716-1305",6.0,"FOLO","Follow_up","2013-08-26","2013-08-28",""],["CDISCPILOT01","SE","01-716-1308",1.0,"SCRN","Screen","2013-08-23","2013-08-28",""],["CDISCPILOT01","SE","01-716-1308",4.0,"PBO","Placebo","2013-08-28","2013-10-07",""],["CDISCPILOT01","SE","01-716-1311",1.0,"SCRN","Screen","2014-05-08","2014-05-14",""],["CDISCPILOT01","SE","01-716-1311",4.0,"LO","Low","2014-05-14","2014-09-30",""],["CDISCPILOT01","SE","01-716-1311",6.0,"FOLO","Follow_up","2014-09-30","2014-11-15",""],["CDISCPILOT01","SE","01-716-1331",1.0,"SCRN","Screen","2013-11-25","2013-11-25",""],["CDISCPILOT01","SE","01-716-1364",1.0,"SCRN","Screen","2013-06-27","2013-07-04",""],["CDISCPILOT01","SE","01-716-1364",3.0,"HIS","High_Start","2013-07-04","2013-07-17",""],["CDISCPILOT01","SE","01-716-1364",4.0,"HIM","High_Middle","2013-07-17","2013-12-23",""],["CDISCPILOT01","SE","01-716-1364",5.0,"HIE","High_End","2013-12-23","2014-01-09",""],["CDISCPILOT01","SE","01-716-1373",1.0,"SCRN","Screen","2012-11-24","2012-12-14",""],["CDISCPILOT01","SE","01-716-1373",3.0,"HIS","High_Start","2012-12-14","2012-12-30",""],["CDISCPILOT01","SE","01-716-1373",4.0,"HIM","High_Middle","2012-12-30","2013-02-28",""],["CDISCPILOT01","SE","01-716-1373",6.0,"FOLO","Follow_up","2013-02-28","2013-02-28",""],["CDISCPILOT01","SE","01-716-1418",1.0,"SCRN","Screen","2013-04-27","2013-05-05",""],["CDISCPILOT01","SE","01-716-1418",3.0,"HIS","High_Start","2013-05-05","2013-05-19",""],["CDISCPILOT01","SE","01-716-1418",4.0,"HIM","High_Middle","2013-05-19","2013-11-06",""],["CDISCPILOT01","SE","01-716-1418",5.0,"HIE","High_End","2013-11-06","2013-11-20",""],["CDISCPILOT01","SE","01-716-1441",1.0,"SCRN","Screen","2014-01-13","2014-01-22",""],["CDISCPILOT01","SE","01-716-1441",4.0,"PBO","Placebo","2014-01-22","2014-07-22",""],["CDISCPILOT01","SE","01-716-1447",1.0,"SCRN","Screen","2013-12-10","2013-12-16",""],["CDISCPILOT01","SE","01-716-1447",3.0,"HIS","High_Start","2013-12-16","2013-12-31",""],["CDISCPILOT01","SE","01-716-1447",4.0,"HIM","High_Middle","2013-12-31","2014-06-07",""],["CDISCPILOT01","SE","01-716-1447",5.0,"HIE","High_End","2014-06-07","2014-06-17",""],["CDISCPILOT01","SE","01-717-1004",1.0,"SCRN","Screen","2014-01-01","2014-01-14",""],["CDISCPILOT01","SE","01-717-1004",4.0,"LO","Low","2014-01-14","2014-07-16",""],["CDISCPILOT01","SE","01-717-1109",1.0,"SCRN","Screen","2014-01-20","2014-01-27",""],["CDISCPILOT01","SE","01-717-1109",3.0,"HIS","High_Start","2014-01-27","2014-02-10",""],["CDISCPILOT01","SE","01-717-1109",4.0,"HIM","High_Middle","2014-02-10","2014-07-18",""],["CDISCPILOT01","SE","01-717-1109",5.0,"HIE","High_End","2014-07-18","2014-07-28",""],["CDISCPILOT01","SE","01-717-1174",1.0,"SCRN","Screen","2013-01-16","2013-01-22",""],["CDISCPILOT01","SE","01-717-1174",3.0,"HIS","High_Start","2013-01-22","2013-02-04",""],["CDISCPILOT01","SE","01-717-1174",4.0,"HIM","High_Middle","2013-02-04","2013-07-07",""],["CDISCPILOT01","SE","01-717-1174",5.0,"HIE","High_End","2013-07-07","2013-07-24",""],["CDISCPILOT01","SE","01-717-1201",1.0,"SCRN","Screen","2013-12-12","2013-12-19",""],["CDISCPILOT01","SE","01-717-1201",4.0,"PBO","Placebo","2013-12-19","2014-02-21",""],["CDISCPILOT01","SE","01-717-1344",1.0,"SCRN","Screen","2014-01-01","2014-01-11",""],["CDISCPILOT01","SE","01-717-1344",4.0,"PBO","Placebo","2014-01-11","2014-03-14",""],["CDISCPILOT01","SE","01-717-1357",1.0,"SCRN","Screen","2013-04-21","2013-05-01",""],["CDISCPILOT01","SE","01-717-1357",3.0,"HIS","High_Start","2013-05-01","2013-05-15",""],["CDISCPILOT01","SE","01-717-1357",4.0,"HIM","High_Middle","2013-05-15","2013-10-20",""],["CDISCPILOT01","SE","01-717-1446",1.0,"SCRN","Screen","2013-08-20","2013-09-01",""],["CDISCPILOT01","SE","01-717-1446",4.0,"LO","Low","2013-09-01","2014-03-17",""],["CDISCPILOT01","SE","01-718-1066",1.0,"SCRN","Screen","2013-06-28","2013-07-07",""],["CDISCPILOT01","SE","01-718-1066",4.0,"LO","Low","2013-07-07","2013-07-30",""],["CDISCPILOT01","SE","01-718-1066",6.0,"FOLO","Follow_up","2013-07-30","2014-01-13",""],["CDISCPILOT01","SE","01-718-1079",1.0,"SCRN","Screen","2012-09-11","2012-09-19",""],["CDISCPILOT01","SE","01-718-1079",4.0,"LO","Low","2012-09-19","2012-11-06",""],["CDISCPILOT01","SE","01-718-1079",6.0,"FOLO","Follow_up","2012-11-06","2013-03-05",""],["CDISCPILOT01","SE","01-718-1101",1.0,"SCRN","Screen","2013-02-01","2013-02-17",""],["CDISCPILOT01","SE","01-718-1101",3.0,"HIS","High_Start","2013-02-17","2013-03-03",""],["CDISCPILOT01","SE","01-718-1101",4.0,"HIM","High_Middle","2013-03-03","2013-08-02",""],["CDISCPILOT01","SE","01-718-1139",1.0,"SCRN","Screen","2013-05-03","2013-05-19",""],["CDISCPILOT01","SE","01-718-1139",4.0,"PBO","Placebo","2013-05-19","2013-11-17",""],["CDISCPILOT01","SE","01-718-1150",1.0,"SCRN","Screen","2013-01-12","2013-01-19",""],["CDISCPILOT01","SE","01-718-1150",4.0,"PBO","Placebo","2013-01-19","2013-07-31",""],["CDISCPILOT01","SE","01-718-1170",1.0,"SCRN","Screen","2013-08-25","2013-09-16",""],["CDISCPILOT01","SE","01-718-1170",4.0,"LO","Low","2013-09-16","2013-11-03",""],["CDISCPILOT01","SE","01-718-1170",6.0,"FOLO","Follow_up","2013-11-03","2014-03-15",""],["CDISCPILOT01","SE","01-718-1172",1.0,"SCRN","Screen","2013-09-15","2013-09-21",""],["CDISCPILOT01","SE","01-718-1172",4.0,"PBO","Placebo","2013-09-21","2013-11-29",""],["CDISCPILOT01","SE","01-718-1172",6.0,"FOLO","Follow_up","2013-11-29","2014-03-21",""],["CDISCPILOT01","SE","01-718-1250",1.0,"SCRN","Screen","2013-08-21","2013-09-21",""],["CDISCPILOT01","SE","01-718-1250",4.0,"LO","Low","2013-09-21","2014-02-08",""],["CDISCPILOT01","SE","01-718-1250",6.0,"FOLO","Follow_up","2014-02-08","2014-03-08",""],["CDISCPILOT01","SE","01-718-1254",1.0,"SCRN","Screen","2013-06-28","2013-07-10",""],["CDISCPILOT01","SE","01-718-1254",4.0,"LO","Low","2013-07-10","2014-01-09",""],["CDISCPILOT01","SE","01-718-1328",1.0,"SCRN","Screen","2013-01-28","2013-02-01",""],["CDISCPILOT01","SE","01-718-1328",3.0,"HIS","High_Start","2013-02-01","2013-02-14",""],["CDISCPILOT01","SE","01-718-1328",4.0,"HIM","High_Middle","2013-02-14","2013-05-01",""],["CDISCPILOT01","SE","01-718-1328",6.0,"FOLO","Follow_up","2013-05-01","2013-07-24",""],["CDISCPILOT01","SE","01-718-1355",1.0,"SCRN","Screen","2013-02-12","2013-02-28",""],["CDISCPILOT01","SE","01-718-1355",4.0,"PBO","Placebo","2013-02-28","2013-08-29",""],["CDISCPILOT01","SE","01-718-1371",1.0,"SCRN","Screen","2013-04-11","2013-04-26",""],["CDISCPILOT01","SE","01-718-1371",3.0,"HIS","High_Start","2013-04-26","2013-05-08",""],["CDISCPILOT01","SE","01-718-1371",4.0,"HIM","High_Middle","2013-05-08","2013-08-08",""],["CDISCPILOT01","SE","01-718-1427",1.0,"SCRN","Screen","2012-12-13","2012-12-17",""],["CDISCPILOT01","SE","01-718-1427",3.0,"HIS","High_Start","2012-12-17","2012-12-31",""],["CDISCPILOT01","SE","01-718-1427",4.0,"HIM","High_Middle","2012-12-31","2013-02-18",""],["CDISCPILOT01","SE","01-718-1427",6.0,"FOLO","Follow_up","2013-02-18","2013-06-03",""]]}