{"datasetJSONCreationDateTime":"2026-02-15T19:38:09","datasetJSONVersion":"1.1.0","itemGroupOID":"suppds","records":3,"name":"suppds","label":"suppds","columns":[{"dataType":"string","length":12,"itemOID":"STUDYID","name":"STUDYID","label":"Study Identifier"},{"dataType":"string","length":2,"itemOID":"RDOMAIN","name":"RDOMAIN","label":"Related Domain Abbreviation"},{"dataType":"string","length":11,"itemOID":"USUBJID","name":"USUBJID","label":"Unique Subject Identifier"},{"dataType":"string","length":5,"itemOID":"IDVAR","name":"IDVAR","label":"Identifying Variable"},{"dataType":"string","length":1,"itemOID":"IDVARVAL","name":"IDVARVAL","label":"Identifying Variable Value"},{"dataType":"string","length":7,"itemOID":"QNAM","name":"QNAM","label":"Qualifier Variable Name"},{"dataType":"string","length":31,"itemOID":"QLABEL","name":"QLABEL","label":"Qualifier Variable Label"},{"dataType":"string","length":2,"itemOID":"QVAL","name":"QVAL","label":"Data Value"},{"dataType":"string","length":3,"itemOID":"QORIG","name":"QORIG","label":"Origin"},{"dataType":"string","length":0,"itemOID":"QEVAL","name":"QEVAL","label":"Evaluator"}],"rows":[["CDISCPILOT01","DS","01-703-1175","DSSEQ","1","ENTCRIT","PROTOCOL ENTRY CRITERIA NOT MET","16","CRF",""],["CDISCPILOT01","DS","01-705-1382","DSSEQ","1","ENTCRIT","PROTOCOL ENTRY CRITERIA NOT MET","25","CRF",""],["CDISCPILOT01","DS","01-708-1372","DSSEQ","1","ENTCRIT","PROTOCOL ENTRY CRITERIA NOT MET","16","CRF",""]]}