{"datasetJSONCreationDateTime":"2026-02-12T15:58:58","datasetJSONVersion":"1.1.0","itemGroupOID":"suppae","records":1191,"name":"suppae","label":"suppae","columns":[{"dataType":"string","length":12,"itemOID":"STUDYID","name":"STUDYID","label":"Study Identifier"},{"dataType":"string","length":2,"itemOID":"RDOMAIN","name":"RDOMAIN","label":"Related Domain Abbreviation"},{"dataType":"string","length":11,"itemOID":"USUBJID","name":"USUBJID","label":"Unique Subject Identifier"},{"dataType":"string","length":5,"itemOID":"IDVAR","name":"IDVAR","label":"Identifying Variable"},{"dataType":"string","length":2,"itemOID":"IDVARVAL","name":"IDVARVAL","label":"Identifying Variable Value"},{"dataType":"string","length":7,"itemOID":"QNAM","name":"QNAM","label":"Qualifier Variable Name"},{"dataType":"string","length":23,"itemOID":"QLABEL","name":"QLABEL","label":"Qualifier Variable Label"},{"dataType":"string","length":1,"itemOID":"QVAL","name":"QVAL","label":"Data Value"},{"dataType":"string","length":7,"itemOID":"QORIG","name":"QORIG","label":"Origin"},{"dataType":"string","length":22,"itemOID":"QEVAL","name":"QEVAL","label":"Evaluator"}],"rows":[["CDISCPILOT01","AE","01-701-1015","AESEQ","1","AETRTEM","TREATMENT EMERGENT FLAG","Y","DERIVED","CLINICAL STUDY SPONSOR"],["CDISCPILOT01","AE","01-701-1015","AESEQ","2","AETRTEM","TREATMENT EMERGENT FLAG","Y","DERIVED","CLINICAL STUDY SPONSOR"],["CDISCPILOT01","AE","01-701-1015","AESEQ","3","AETRTEM","TREATMENT EMERGENT FLAG","Y","DERIVED","CLINICAL STUDY SPONSOR"],["CDISCPILOT01","AE","01-701-1023","AESEQ","1","AETRTEM","TREATMENT EMERGENT FLAG","Y","DERIVED","CLINICAL STUDY SPONSOR"],["CDISCPILOT01","AE","01-701-1023","AESEQ","2","AETRTEM","TREATMENT EMERGENT FLAG","Y","DERIVED","CLINICAL STUDY SPONSOR"],["CDISCPILOT01","AE","01-701-1023","AESEQ","3","AETRTEM","TREATMENT EMERGENT FLAG","Y","DERIVED","CLINICAL STUDY SPONSOR"],["CDISCPILOT01","AE","01-701-1023","AESEQ","4","AETRTEM","TREATMENT EMERGENT FLAG","Y","DERIVED","CLINICAL STUDY SPONSOR"],["CDISCPILOT01","AE","01-701-1028","AESEQ","1","AETRTEM","TREATMENT EMERGENT FLAG","Y","DERIVED","CLINICAL STUDY SPONSOR"],["CDISCPILOT01","AE","01-701-1028","AESEQ","2","AETRTEM","TREATMENT EMERGENT FLAG","Y","DERIVED","CLINICAL STUDY SPONSOR"],["CDISCPILOT01","AE","01-701-1034","AESEQ","1","AETRTEM","TREATMENT EMERGENT FLAG","Y","DERIVED","CLINICAL STUDY SPONSOR"],["CDISCPILOT01","AE","01-701-1034","AESEQ","2","AETRTEM","TREATMENT EMERGENT FLAG","Y","DERIVED","CLINICAL STUDY SPONSOR"],["CDISCPILOT01","AE","01-701-1047","AESEQ","1","AETRTEM","TREATMENT EMERGENT FLAG","Y","DERIVED","CLINICAL STUDY SPONSOR"],["CDISCPILOT01","AE","01-701-1047","AESEQ","2","AETRTEM","TREATMENT EMERGENT FLAG","Y","DERIVED","CLINICAL STUDY SPONSOR"],["CDISCPILOT01","AE","01-701-1047","AESEQ","3","AETRTEM","TREATMENT EMERGENT FLAG","Y","DERIVED","CLINICAL STUDY SPONSOR"],["CDISCPILOT01","AE","01-701-1047","AESEQ","4","AETRTEM","TREATMENT EMERGENT FLAG","Y","DERIVED","CLINICAL STUDY SPONSOR"],["CDISCPILOT01","AE","01-701-1097","AESEQ","1","AETRTEM","TREATMENT EMERGENT FLAG","Y","DERIVED","CLINICAL STUDY SPONSOR"],["CDISCPILOT01","AE","01-701-1097","AESEQ","10","AETRTEM","TREATMENT EMERGENT FLAG","Y","DERIVED","CLINICAL STUDY SPONSOR"],["CDISCPILOT01","AE","01-701-1097","AESEQ","2","AETRTEM","TREATMENT EMERGENT FLAG","Y","DERIVED","CLINICAL STUDY SPONSOR"],["CDISCPILOT01","AE","01-701-1097","AESEQ","3","AETRTEM","TREATMENT EMERGENT FLAG","Y","DERIVED","CLINICAL STUDY SPONSOR"],["CDISCPILOT01","AE","01-701-1097","AESEQ","4","AETRTEM","TREATMENT EMERGENT FLAG","Y","DERIVED","CLINICAL STUDY SPONSOR"],["CDISCPILOT01","AE","01-701-1097","AESEQ","5","AETRTEM","TREATMENT EMERGENT FLAG","Y","DERIVED","CLINICAL STUDY SPONSOR"],["CDISCPILOT01","AE","01-701-1097","AESEQ","6","AETRTEM","TREATMENT EMERGENT FLAG","Y","DERIVED","CLINICAL STUDY SPONSOR"],["CDISCPILOT01","AE","01-701-1097","AESEQ","7","AETRTEM","TREATMENT EMERGENT FLAG","Y","DERIVED","CLINICAL STUDY SPONSOR"],["CDISCPILOT01","AE","01-701-1097","AESEQ","8","AETRTEM","TREATMENT EMERGENT FLAG","Y","DERIVED","CLINICAL STUDY SPONSOR"],["CDISCPILOT01","AE","01-701-1097","AESEQ","9","AETRTEM","TREATMENT EMERGENT FLAG","Y","DERIVED","CLINICAL STUDY SPONSOR"],["CDISCPILOT01","AE","01-701-1111","AESEQ","1","AETRTEM","TREATMENT EMERGENT FLAG","N","DERIVED","CLINICAL STUDY SPONSOR"],["CDISCPILOT01","AE","01-701-1111","AESEQ","2","AETRTEM","TREATMENT EMERGENT FLAG","N","DERIVED","CLINICAL STUDY SPONSOR"],["CDISCPILOT01","AE","01-701-1111","AESEQ","3","AETRTEM","TREATMENT EMERGENT FLAG","N","DERIVED","CLINICAL STUDY SPONSOR"],["CDISCPILOT01","AE","01-701-1111","AESEQ","4","AETRTEM","TREATMENT EMERGENT FLAG","N","DERIVED","CLINICAL STUDY SPONSOR"],["CDISCPILOT01","AE","01-701-1111","AESEQ","5","AETRTEM","TREATMENT EMERGENT FLAG","N","DERIVED","CLINICAL STUDY SPONSOR"],["CDISCPILOT01","AE","01-701-1111","AESEQ","6","AETRTEM","TREATMENT EMERGENT FLAG","Y","DERIVED","CLINICAL STUDY SPONSOR"],["CDISCPILOT01","AE","01-701-1111","AESEQ","7","AETRTEM","TREATMENT EMERGENT FLAG","Y","DERIVED","CLINICAL STUDY SPONSOR"],["CDISCPILOT01","AE","01-701-1111","AESEQ","8","AETRTEM","TREATMENT EMERGENT FLAG","Y","DERIVED","CLINICAL STUDY SPONSOR"],["CDISCPILOT01","AE","01-701-1115","AESEQ","1","AETRTEM","TREATMENT EMERGENT FLAG","Y","DERIVED","CLINICAL STUDY SPONSOR"],["CDISCPILOT01","AE","01-701-1115","AESEQ","2","AETRTEM","TREATMENT EMERGENT FLAG","Y","DERIVED","CLINICAL STUDY SPONSOR"],["CDISCPILOT01","AE","01-701-1115","AESEQ","3","AETRTEM","TREATMENT EMERGENT FLAG","Y","DERIVED","CLINICAL STUDY SPONSOR"],["CDISCPILOT01","AE","01-701-1115","AESEQ","4","AETRTEM","TREATMENT EMERGENT FLAG","Y","DERIVED","CLINICAL STUDY SPONSOR"],["CDISCPILOT01","AE","01-701-1115","AESEQ","5","AETRTEM","TREATMENT EMERGENT FLAG","Y","DERIVED","CLINICAL STUDY SPONSOR"],["CDISCPILOT01","AE","01-701-1115","AESEQ","6","AETRTEM","TREATMENT EMERGENT FLAG","Y","DERIVED","CLINICAL STUDY SPONSOR"],["CDISCPILOT01","AE","01-701-1115","AESEQ","7","AETRTEM","TREATMENT EMERGENT FLAG","Y","DERIVED","CLINICAL STUDY SPONSOR"],["CDISCPILOT01","AE","01-701-1115","AESEQ","8","AETRTEM","TREATMENT EMERGENT FLAG","Y","DERIVED","CLINICAL STUDY SPONSOR"],["CDISCPILOT01","AE","01-701-1115","AESEQ","9","AETRTEM","TREATMENT EMERGENT FLAG","Y","DERIVED","CLINICAL STUDY SPONSOR"],["CDISCPILOT01","AE","01-701-1118","AESEQ","1","AETRTEM","TREATMENT EMERGENT FLAG","N","DERIVED","CLINICAL STUDY SPONSOR"],["CDISCPILOT01","AE","01-701-1130","AESEQ","1","AETRTEM","TREATMENT EMERGENT FLAG","Y","DERIVED","CLINICAL STUDY SPONSOR"],["CDISCPILOT01","AE","01-701-1130","AESEQ","2","AETRTEM","TREATMENT EMERGENT FLAG","Y","DERIVED","CLINICAL STUDY SPONSOR"],["CDISCPILOT01","AE","01-701-1130","AESEQ","3","AETRTEM","TREATMENT EMERGENT FLAG","Y","DERIVED","CLINICAL STUDY SPONSOR"],["CDISCPILOT01","AE","01-701-1130","AESEQ","4","AETRTEM","TREATMENT EMERGENT FLAG","Y","DERIVED","CLINICAL STUDY SPONSOR"],["CDISCPILOT01","AE","01-701-1130","AESEQ","5","AETRTEM","TREATMENT EMERGENT FLAG","Y","DERIVED","CLINICAL STUDY SPONSOR"],["CDISCPILOT01","AE","01-701-1130","AESEQ","6","AETRTEM","TREATMENT EMERGENT FLAG","Y","DERIVED","CLINICAL STUDY SPONSOR"],["CDISCPILOT01","AE","01-701-1130","AESEQ","7","AETRTEM","TREATMENT EMERGENT FLAG","Y","DERIVED","CLINICAL STUDY SPONSOR"],["CDISCPILOT01","AE","01-701-1130","AESEQ","8","AETRTEM","TREATMENT EMERGENT FLAG","Y","DERIVED","CLINICAL STUDY SPONSOR"],["CDISCPILOT01","AE","01-701-1133","AESEQ","1","AETRTEM","TREATMENT EMERGENT FLAG","Y","DERIVED","CLINICAL STUDY SPONSOR"],["CDISCPILOT01","AE","01-701-1133","AESEQ","2","AETRTEM","TREATMENT EMERGENT FLAG","Y","DERIVED","CLINICAL STUDY SPONSOR"],["CDISCPILOT01","AE","01-701-1133","AESEQ","3","AETRTEM","TREATMENT EMERGENT FLAG","Y","DERIVED","CLINICAL STUDY SPONSOR"],["CDISCPILOT01","AE","01-701-1133","AESEQ","4","AETRTEM","TREATMENT EMERGENT FLAG","Y","DERIVED","CLINICAL STUDY SPONSOR"],["CDISCPILOT01","AE","01-701-1146","AESEQ","1","AETRTEM","TREATMENT EMERGENT FLAG","N","DERIVED","CLINICAL STUDY SPONSOR"],["CDISCPILOT01","AE","01-701-1146","AESEQ","10","AETRTEM","TREATMENT EMERGENT FLAG","Y","DERIVED","CLINICAL STUDY SPONSOR"],["CDISCPILOT01","AE","01-701-1146","AESEQ","11","AETRTEM","TREATMENT EMERGENT FLAG","Y","DERIVED","CLINICAL STUDY SPONSOR"],["CDISCPILOT01","AE","01-701-1146","AESEQ","2","AETRTEM","TREATMENT EMERGENT FLAG","N","DERIVED","CLINICAL STUDY SPONSOR"],["CDISCPILOT01","AE","01-701-1146","AESEQ","3","AETRTEM","TREATMENT EMERGENT FLAG","Y","DERIVED","CLINICAL STUDY SPONSOR"],["CDISCPILOT01","AE","01-701-1146","AESEQ","4","AETRTEM","TREATMENT EMERGENT FLAG","Y","DERIVED","CLINICAL STUDY SPONSOR"],["CDISCPILOT01","AE","01-701-1146","AESEQ","5","AETRTEM","TREATMENT EMERGENT FLAG","Y","DERIVED","CLINICAL STUDY SPONSOR"],["CDISCPILOT01","AE","01-701-1146","AESEQ","6","AETRTEM","TREATMENT EMERGENT FLAG","Y","DERIVED","CLINICAL STUDY SPONSOR"],["CDISCPILOT01","AE","01-701-1146","AESEQ","7","AETRTEM","TREATMENT EMERGENT FLAG","Y","DERIVED","CLINICAL STUDY SPONSOR"],["CDISCPILOT01","AE","01-701-1146","AESEQ","8","AETRTEM","TREATMENT EMERGENT FLAG","Y","DERIVED","CLINICAL STUDY SPONSOR"],["CDISCPILOT01","AE","01-701-1146","AESEQ","9","AETRTEM","TREATMENT EMERGENT FLAG","Y","DERIVED","CLINICAL STUDY SPONSOR"],["CDISCPILOT01","AE","01-701-1148","AESEQ","1","AETRTEM","TREATMENT EMERGENT FLAG","Y","DERIVED","CLINICAL STUDY SPONSOR"],["CDISCPILOT01","AE","01-701-1148","AESEQ","10","AETRTEM","TREATMENT EMERGENT FLAG","Y","DERIVED","CLINICAL STUDY SPONSOR"],["CDISCPILOT01","AE","01-701-1148","AESEQ","2","AETRTEM","TREATMENT EMERGENT FLAG","Y","DERIVED","CLINICAL STUDY SPONSOR"],["CDISCPILOT01","AE","01-701-1148","AESEQ","3","AETRTEM","TREATMENT EMERGENT FLAG","Y","DERIVED","CLINICAL STUDY SPONSOR"],["CDISCPILOT01","AE","01-701-1148","AESEQ","4","AETRTEM","TREATMENT EMERGENT FLAG","Y","DERIVED","CLINICAL STUDY SPONSOR"],["CDISCPILOT01","AE","01-701-1148","AESEQ","5","AETRTEM","TREATMENT EMERGENT FLAG","Y","DERIVED","CLINICAL STUDY SPONSOR"],["CDISCPILOT01","AE","01-701-1148","AESEQ","6","AETRTEM","TREATMENT EMERGENT FLAG","Y","DERIVED","CLINICAL STUDY SPONSOR"],["CDISCPILOT01","AE","01-701-1148","AESEQ","7","AETRTEM","TREATMENT EMERGENT FLAG","Y","DERIVED","CLINICAL STUDY SPONSOR"],["CDISCPILOT01","AE","01-701-1148","AESEQ","8","AETRTEM","TREATMENT EMERGENT FLAG","N","DERIVED","CLINICAL STUDY SPONSOR"],["CDISCPILOT01","AE","01-701-1148","AESEQ","9","AETRTEM","TREATMENT EMERGENT FLAG","N","DERIVED","CLINICAL STUDY SPONSOR"],["CDISCPILOT01","AE","01-701-1153","AESEQ","1","AETRTEM","TREATMENT EMERGENT FLAG","Y","DERIVED","CLINICAL STUDY SPONSOR"],["CDISCPILOT01","AE","01-701-1153","AESEQ","2","AETRTEM","TREATMENT EMERGENT FLAG","Y","DERIVED","CLINICAL STUDY SPONSOR"],["CDISCPILOT01","AE","01-701-1180","AESEQ","1","AETRTEM","TREATMENT EMERGENT FLAG","Y","DERIVED","CLINICAL STUDY SPONSOR"],["CDISCPILOT01","AE","01-701-1180","AESEQ","2","AETRTEM","TREATMENT EMERGENT FLAG","Y","DERIVED","CLINICAL STUDY SPONSOR"],["CDISCPILOT01","AE","01-701-1180","AESEQ","3","AETRTEM","TREATMENT EMERGENT FLAG","Y","DERIVED","CLINICAL STUDY SPONSOR"],["CDISCPILOT01","AE","01-701-1180","AESEQ","4","AETRTEM","TREATMENT EMERGENT FLAG","N","DERIVED","CLINICAL STUDY SPONSOR"],["CDISCPILOT01","AE","01-701-1180","AESEQ","5","AETRTEM","TREATMENT EMERGENT FLAG","Y","DERIVED","CLINICAL STUDY SPONSOR"],["CDISCPILOT01","AE","01-701-1180","AESEQ","6","AETRTEM","TREATMENT EMERGENT FLAG","Y","DERIVED","CLINICAL STUDY SPONSOR"],["CDISCPILOT01","AE","01-701-1180","AESEQ","7","AETRTEM","TREATMENT EMERGENT FLAG","Y","DERIVED","CLINICAL STUDY SPONSOR"],["CDISCPILOT01","AE","01-701-1180","AESEQ","8","AETRTEM","TREATMENT EMERGENT FLAG","Y","DERIVED","CLINICAL STUDY SPONSOR"],["CDISCPILOT01","AE","01-701-1180","AESEQ","9","AETRTEM","TREATMENT EMERGENT FLAG","Y","DERIVED","CLINICAL STUDY SPONSOR"],["CDISCPILOT01","AE","01-701-1181","AESEQ","1","AETRTEM","TREATMENT EMERGENT FLAG","Y","DERIVED","CLINICAL STUDY SPONSOR"],["CDISCPILOT01","AE","01-701-1188","AESEQ","1","AETRTEM","TREATMENT EMERGENT FLAG","Y","DERIVED","CLINICAL STUDY SPONSOR"],["CDISCPILOT01","AE","01-701-1188","AESEQ","2","AETRTEM","TREATMENT EMERGENT FLAG","Y","DERIVED","CLINICAL STUDY SPONSOR"],["CDISCPILOT01","AE","01-701-1188","AESEQ","3","AETRTEM","TREATMENT EMERGENT FLAG","Y","DERIVED","CLINICAL STUDY SPONSOR"],["CDISCPILOT01","AE","01-701-1188","AESEQ","4","AETRTEM","TREATMENT EMERGENT FLAG","Y","DERIVED","CLINICAL STUDY SPONSOR"],["CDISCPILOT01","AE","01-701-1188","AESEQ","5","AETRTEM","TREATMENT EMERGENT FLAG","Y","DERIVED","CLINICAL STUDY SPONSOR"],["CDISCPILOT01","AE","01-701-1188","AESEQ","6","AETRTEM","TREATMENT EMERGENT FLAG","Y","DERIVED","CLINICAL STUDY SPONSOR"],["CDISCPILOT01","AE","01-701-1188","AESEQ","7","AETRTEM","TREATMENT EMERGENT FLAG","Y","DERIVED","CLINICAL STUDY SPONSOR"],["CDISCPILOT01","AE","01-701-1188","AESEQ","8","AETRTEM","TREATMENT EMERGENT FLAG","Y","DERIVED","CLINICAL STUDY SPONSOR"],["CDISCPILOT01","AE","01-701-1192","AESEQ","1","AETRTEM","TREATMENT EMERGENT FLAG","Y","DERIVED","CLINICAL STUDY SPONSOR"],["CDISCPILOT01","AE","01-701-1192","AESEQ","10","AETRTEM","TREATMENT EMERGENT FLAG","Y","DERIVED","CLINICAL STUDY SPONSOR"],["CDISCPILOT01","AE","01-701-1192","AESEQ","11","AETRTEM","TREATMENT EMERGENT FLAG","Y","DERIVED","CLINICAL STUDY SPONSOR"],["CDISCPILOT01","AE","01-701-1192","AESEQ","12","AETRTEM","TREATMENT EMERGENT FLAG","Y","DERIVED","CLINICAL STUDY SPONSOR"],["CDISCPILOT01","AE","01-701-1192","AESEQ","13","AETRTEM","TREATMENT EMERGENT FLAG","Y","DERIVED","CLINICAL STUDY SPONSOR"],["CDISCPILOT01","AE","01-701-1192","AESEQ","14","AETRTEM","TREATMENT EMERGENT FLAG","Y","DERIVED","CLINICAL STUDY SPONSOR"],["CDISCPILOT01","AE","01-701-1192","AESEQ","15","AETRTEM","TREATMENT EMERGENT FLAG","Y","DERIVED","CLINICAL STUDY SPONSOR"],["CDISCPILOT01","AE","01-701-1192","AESEQ","2","AETRTEM","TREATMENT EMERGENT FLAG","Y","DERIVED","CLINICAL STUDY SPONSOR"],["CDISCPILOT01","AE","01-701-1192","AESEQ","3","AETRTEM","TREATMENT EMERGENT FLAG","Y","DERIVED","CLINICAL STUDY SPONSOR"],["CDISCPILOT01","AE","01-701-1192","AESEQ","4","AETRTEM","TREATMENT EMERGENT FLAG","N","DERIVED","CLINICAL STUDY SPONSOR"],["CDISCPILOT01","AE","01-701-1192","AESEQ","5","AETRTEM","TREATMENT EMERGENT FLAG","Y","DERIVED","CLINICAL STUDY SPONSOR"],["CDISCPILOT01","AE","01-701-1192","AESEQ","6","AETRTEM","TREATMENT EMERGENT FLAG","Y","DERIVED","CLINICAL STUDY SPONSOR"],["CDISCPILOT01","AE","01-701-1192","AESEQ","7","AETRTEM","TREATMENT EMERGENT FLAG","Y","DERIVED","CLINICAL STUDY SPONSOR"],["CDISCPILOT01","AE","01-701-1192","AESEQ","8","AETRTEM","TREATMENT EMERGENT FLAG","Y","DERIVED","CLINICAL STUDY SPONSOR"],["CDISCPILOT01","AE","01-701-1192","AESEQ","9","AETRTEM","TREATMENT EMERGENT FLAG","N","DERIVED","CLINICAL STUDY SPONSOR"],["CDISCPILOT01","AE","01-701-1203","AESEQ","1","AETRTEM","TREATMENT EMERGENT FLAG","Y","DERIVED","CLINICAL STUDY SPONSOR"],["CDISCPILOT01","AE","01-701-1211","AESEQ","1","AETRTEM","TREATMENT EMERGENT FLAG","Y","DERIVED","CLINICAL STUDY SPONSOR"],["CDISCPILOT01","AE","01-701-1211","AESEQ","2","AETRTEM","TREATMENT EMERGENT FLAG","Y","DERIVED","CLINICAL STUDY SPONSOR"],["CDISCPILOT01","AE","01-701-1211","AESEQ","3","AETRTEM","TREATMENT EMERGENT FLAG","Y","DERIVED","CLINICAL STUDY SPONSOR"],["CDISCPILOT01","AE","01-701-1211","AESEQ","4","AETRTEM","TREATMENT EMERGENT FLAG","Y","DERIVED","CLINICAL STUDY SPONSOR"],["CDISCPILOT01","AE","01-701-1211","AESEQ","5","AETRTEM","TREATMENT EMERGENT FLAG","Y","DERIVED","CLINICAL STUDY SPONSOR"],["CDISCPILOT01","AE","01-701-1211","AESEQ","6","AETRTEM","TREATMENT EMERGENT FLAG","Y","DERIVED","CLINICAL STUDY SPONSOR"],["CDISCPILOT01","AE","01-701-1211","AESEQ","7","AETRTEM","TREATMENT EMERGENT FLAG","Y","DERIVED","CLINICAL STUDY SPONSOR"],["CDISCPILOT01","AE","01-701-1211","AESEQ","8","AETRTEM","TREATMENT EMERGENT FLAG","Y","DERIVED","CLINICAL STUDY SPONSOR"],["CDISCPILOT01","AE","01-701-1211","AESEQ","9","AETRTEM","TREATMENT EMERGENT FLAG","Y","DERIVED","CLINICAL STUDY SPONSOR"],["CDISCPILOT01","AE","01-701-1239","AESEQ","1","AETRTEM","TREATMENT EMERGENT FLAG","Y","DERIVED","CLINICAL STUDY SPONSOR"],["CDISCPILOT01","AE","01-701-1239","AESEQ","10","AETRTEM","TREATMENT EMERGENT FLAG","Y","DERIVED","CLINICAL STUDY SPONSOR"],["CDISCPILOT01","AE","01-701-1239","AESEQ","2","AETRTEM","TREATMENT EMERGENT FLAG","Y","DERIVED","CLINICAL STUDY SPONSOR"],["CDISCPILOT01","AE","01-701-1239","AESEQ","3","AETRTEM","TREATMENT EMERGENT FLAG","Y","DERIVED","CLINICAL STUDY SPONSOR"],["CDISCPILOT01","AE","01-701-1239","AESEQ","4","AETRTEM","TREATMENT EMERGENT FLAG","Y","DERIVED","CLINICAL STUDY SPONSOR"],["CDISCPILOT01","AE","01-701-1239","AESEQ","5","AETRTEM","TREATMENT EMERGENT FLAG","Y","DERIVED","CLINICAL STUDY SPONSOR"],["CDISCPILOT01","AE","01-701-1239","AESEQ","6","AETRTEM","TREATMENT EMERGENT FLAG","Y","DERIVED","CLINICAL STUDY SPONSOR"],["CDISCPILOT01","AE","01-701-1239","AESEQ","7","AETRTEM","TREATMENT EMERGENT FLAG","Y","DERIVED","CLINICAL STUDY SPONSOR"],["CDISCPILOT01","AE","01-701-1239","AESEQ","8","AETRTEM","TREATMENT EMERGENT FLAG","Y","DERIVED","CLINICAL STUDY SPONSOR"],["CDISCPILOT01","AE","01-701-1239","AESEQ","9","AETRTEM","TREATMENT EMERGENT FLAG","Y","DERIVED","CLINICAL STUDY SPONSOR"],["CDISCPILOT01","AE","01-701-1275","AESEQ","1","AETRTEM","TREATMENT EMERGENT FLAG","Y","DERIVED","CLINICAL STUDY SPONSOR"],["CDISCPILOT01","AE","01-701-1275","AESEQ","10","AETRTEM","TREATMENT EMERGENT FLAG","Y","DERIVED","CLINICAL STUDY SPONSOR"],["CDISCPILOT01","AE","01-701-1275","AESEQ","11","AETRTEM","TREATMENT EMERGENT FLAG","Y","DERIVED","CLINICAL STUDY SPONSOR"],["CDISCPILOT01","AE","01-701-1275","AESEQ","12","AETRTEM","TREATMENT EMERGENT FLAG","Y","DERIVED","CLINICAL STUDY SPONSOR"],["CDISCPILOT01","AE","01-701-1275","AESEQ","13","AETRTEM","TREATMENT EMERGENT FLAG","Y","DERIVED","CLINICAL STUDY SPONSOR"],["CDISCPILOT01","AE","01-701-1275","AESEQ","14","AETRTEM","TREATMENT EMERGENT FLAG","Y","DERIVED","CLINICAL STUDY SPONSOR"],["CDISCPILOT01","AE","01-701-1275","AESEQ","15","AETRTEM","TREATMENT EMERGENT FLAG","Y","DERIVED","CLINICAL STUDY SPONSOR"],["CDISCPILOT01","AE","01-701-1275","AESEQ","2","AETRTEM","TREATMENT EMERGENT FLAG","Y","DERIVED","CLINICAL STUDY SPONSOR"],["CDISCPILOT01","AE","01-701-1275","AESEQ","3","AETRTEM","TREATMENT EMERGENT FLAG","Y","DERIVED","CLINICAL STUDY SPONSOR"],["CDISCPILOT01","AE","01-701-1275","AESEQ","4","AETRTEM","TREATMENT EMERGENT FLAG","Y","DERIVED","CLINICAL STUDY SPONSOR"],["CDISCPILOT01","AE","01-701-1275","AESEQ","5","AETRTEM","TREATMENT EMERGENT FLAG","Y","DERIVED","CLINICAL STUDY SPONSOR"],["CDISCPILOT01","AE","01-701-1275","AESEQ","6","AETRTEM","TREATMENT EMERGENT FLAG","Y","DERIVED","CLINICAL STUDY SPONSOR"],["CDISCPILOT01","AE","01-701-1275","AESEQ","7","AETRTEM","TREATMENT EMERGENT FLAG","Y","DERIVED","CLINICAL STUDY SPONSOR"],["CDISCPILOT01","AE","01-701-1275","AESEQ","8","AETRTEM","TREATMENT EMERGENT FLAG","Y","DERIVED","CLINICAL STUDY SPONSOR"],["CDISCPILOT01","AE","01-701-1275","AESEQ","9","AETRTEM","TREATMENT EMERGENT FLAG","Y","DERIVED","CLINICAL STUDY SPONSOR"],["CDISCPILOT01","AE","01-701-1287","AESEQ","1","AETRTEM","TREATMENT EMERGENT FLAG","Y","DERIVED","CLINICAL STUDY SPONSOR"],["CDISCPILOT01","AE","01-701-1287","AESEQ","2","AETRTEM","TREATMENT EMERGENT FLAG","Y","DERIVED","CLINICAL STUDY SPONSOR"],["CDISCPILOT01","AE","01-701-1287","AESEQ","3","AETRTEM","TREATMENT EMERGENT FLAG","Y","DERIVED","CLINICAL STUDY SPONSOR"],["CDISCPILOT01","AE","01-701-1287","AESEQ","4","AETRTEM","TREATMENT EMERGENT FLAG","Y","DERIVED","CLINICAL STUDY SPONSOR"],["CDISCPILOT01","AE","01-701-1287","AESEQ","5","AETRTEM","TREATMENT EMERGENT FLAG","Y","DERIVED","CLINICAL STUDY SPONSOR"],["CDISCPILOT01","AE","01-701-1294","AESEQ","1","AETRTEM","TREATMENT EMERGENT FLAG","N","DERIVED","CLINICAL STUDY SPONSOR"],["CDISCPILOT01","AE","01-701-1294","AESEQ","2","AETRTEM","TREATMENT EMERGENT FLAG","Y","DERIVED","CLINICAL STUDY SPONSOR"],["CDISCPILOT01","AE","01-701-1294","AESEQ","3","AETRTEM","TREATMENT EMERGENT FLAG","Y","DERIVED","CLINICAL STUDY SPONSOR"],["CDISCPILOT01","AE","01-701-1294","AESEQ","4","AETRTEM","TREATMENT EMERGENT FLAG","Y","DERIVED","CLINICAL STUDY SPONSOR"],["CDISCPILOT01","AE","01-701-1294","AESEQ","5","AETRTEM","TREATMENT EMERGENT FLAG","Y","DERIVED","CLINICAL STUDY SPONSOR"],["CDISCPILOT01","AE","01-701-1294","AESEQ","6","AETRTEM","TREATMENT EMERGENT FLAG","Y","DERIVED","CLINICAL STUDY SPONSOR"],["CDISCPILOT01","AE","01-701-1302","AESEQ","1","AETRTEM","TREATMENT EMERGENT FLAG","Y","DERIVED","CLINICAL STUDY SPONSOR"],["CDISCPILOT01","AE","01-701-1302","AESEQ","10","AETRTEM","TREATMENT EMERGENT FLAG","Y","DERIVED","CLINICAL STUDY SPONSOR"],["CDISCPILOT01","AE","01-701-1302","AESEQ","11","AETRTEM","TREATMENT EMERGENT FLAG","Y","DERIVED","CLINICAL STUDY SPONSOR"],["CDISCPILOT01","AE","01-701-1302","AESEQ","12","AETRTEM","TREATMENT EMERGENT FLAG","Y","DERIVED","CLINICAL STUDY SPONSOR"],["CDISCPILOT01","AE","01-701-1302","AESEQ","13","AETRTEM","TREATMENT EMERGENT FLAG","Y","DERIVED","CLINICAL STUDY SPONSOR"],["CDISCPILOT01","AE","01-701-1302","AESEQ","14","AETRTEM","TREATMENT EMERGENT FLAG","Y","DERIVED","CLINICAL STUDY SPONSOR"],["CDISCPILOT01","AE","01-701-1302","AESEQ","15","AETRTEM","TREATMENT EMERGENT FLAG","Y","DERIVED","CLINICAL STUDY SPONSOR"],["CDISCPILOT01","AE","01-701-1302","AESEQ","16","AETRTEM","TREATMENT EMERGENT FLAG","Y","DERIVED","CLINICAL STUDY SPONSOR"],["CDISCPILOT01","AE","01-701-1302","AESEQ","17","AETRTEM","TREATMENT EMERGENT FLAG","Y","DERIVED","CLINICAL STUDY SPONSOR"],["CDISCPILOT01","AE","01-701-1302","AESEQ","18","AETRTEM","TREATMENT EMERGENT FLAG","Y","DERIVED","CLINICAL STUDY SPONSOR"],["CDISCPILOT01","AE","01-701-1302","AESEQ","19","AETRTEM","TREATMENT EMERGENT FLAG","Y","DERIVED","CLINICAL STUDY SPONSOR"],["CDISCPILOT01","AE","01-701-1302","AESEQ","2","AETRTEM","TREATMENT EMERGENT FLAG","Y","DERIVED","CLINICAL STUDY SPONSOR"],["CDISCPILOT01","AE","01-701-1302","AESEQ","20","AETRTEM","TREATMENT EMERGENT FLAG","Y","DERIVED","CLINICAL STUDY SPONSOR"],["CDISCPILOT01","AE","01-701-1302","AESEQ","21","AETRTEM","TREATMENT EMERGENT FLAG","Y","DERIVED","CLINICAL STUDY SPONSOR"],["CDISCPILOT01","AE","01-701-1302","AESEQ","22","AETRTEM","TREATMENT EMERGENT FLAG","Y","DERIVED","CLINICAL STUDY SPONSOR"],["CDISCPILOT01","AE","01-701-1302","AESEQ","23","AETRTEM","TREATMENT EMERGENT FLAG","Y","DERIVED","CLINICAL STUDY SPONSOR"],["CDISCPILOT01","AE","01-701-1302","AESEQ","3","AETRTEM","TREATMENT EMERGENT FLAG","Y","DERIVED","CLINICAL STUDY SPONSOR"],["CDISCPILOT01","AE","01-701-1302","AESEQ","4","AETRTEM","TREATMENT EMERGENT FLAG","Y","DERIVED","CLINICAL STUDY SPONSOR"],["CDISCPILOT01","AE","01-701-1302","AESEQ","5","AETRTEM","TREATMENT EMERGENT FLAG","Y","DERIVED","CLINICAL STUDY SPONSOR"],["CDISCPILOT01","AE","01-701-1302","AESEQ","6","AETRTEM","TREATMENT EMERGENT FLAG","Y","DERIVED","CLINICAL STUDY SPONSOR"],["CDISCPILOT01","AE","01-701-1302","AESEQ","7","AETRTEM","TREATMENT EMERGENT FLAG","Y","DERIVED","CLINICAL STUDY SPONSOR"],["CDISCPILOT01","AE","01-701-1302","AESEQ","8","AETRTEM","TREATMENT EMERGENT FLAG","Y","DERIVED","CLINICAL STUDY SPONSOR"],["CDISCPILOT01","AE","01-701-1302","AESEQ","9","AETRTEM","TREATMENT EMERGENT FLAG","Y","DERIVED","CLINICAL STUDY SPONSOR"],["CDISCPILOT01","AE","01-701-1317","AESEQ","1","AETRTEM","TREATMENT EMERGENT FLAG","N","DERIVED","CLINICAL STUDY SPONSOR"],["CDISCPILOT01","AE","01-701-1317","AESEQ","2","AETRTEM","TREATMENT EMERGENT FLAG","N","DERIVED","CLINICAL STUDY SPONSOR"],["CDISCPILOT01","AE","01-701-1317","AESEQ","3","AETRTEM","TREATMENT EMERGENT FLAG","Y","DERIVED","CLINICAL STUDY SPONSOR"],["CDISCPILOT01","AE","01-701-1317","AESEQ","4","AETRTEM","TREATMENT EMERGENT FLAG","Y","DERIVED","CLINICAL STUDY SPONSOR"],["CDISCPILOT01","AE","01-701-1317","AESEQ","5","AETRTEM","TREATMENT EMERGENT FLAG","Y","DERIVED","CLINICAL STUDY SPONSOR"],["CDISCPILOT01","AE","01-701-1317","AESEQ","6","AETRTEM","TREATMENT EMERGENT FLAG","Y","DERIVED","CLINICAL STUDY SPONSOR"],["CDISCPILOT01","AE","01-701-1317","AESEQ","7","AETRTEM","TREATMENT EMERGENT FLAG","Y","DERIVED","CLINICAL STUDY SPONSOR"],["CDISCPILOT01","AE","01-701-1317","AESEQ","8","AETRTEM","TREATMENT EMERGENT FLAG","Y","DERIVED","CLINICAL STUDY SPONSOR"],["CDISCPILOT01","AE","01-701-1317","AESEQ","9","AETRTEM","TREATMENT EMERGENT FLAG","Y","DERIVED","CLINICAL STUDY SPONSOR"],["CDISCPILOT01","AE","01-701-1324","AESEQ","1","AETRTEM","TREATMENT EMERGENT FLAG","Y","DERIVED","CLINICAL STUDY SPONSOR"],["CDISCPILOT01","AE","01-701-1324","AESEQ","2","AETRTEM","TREATMENT EMERGENT FLAG","Y","DERIVED","CLINICAL STUDY SPONSOR"],["CDISCPILOT01","AE","01-701-1324","AESEQ","3","AETRTEM","TREATMENT EMERGENT FLAG","Y","DERIVED","CLINICAL STUDY SPONSOR"],["CDISCPILOT01","AE","01-701-1324","AESEQ","4","AETRTEM","TREATMENT EMERGENT FLAG","Y","DERIVED","CLINICAL STUDY SPONSOR"],["CDISCPILOT01","AE","01-701-1341","AESEQ","1","AETRTEM","TREATMENT EMERGENT FLAG","Y","DERIVED","CLINICAL STUDY SPONSOR"],["CDISCPILOT01","AE","01-701-1341","AESEQ","2","AETRTEM","TREATMENT EMERGENT FLAG","Y","DERIVED","CLINICAL STUDY SPONSOR"],["CDISCPILOT01","AE","01-701-1341","AESEQ","3","AETRTEM","TREATMENT EMERGENT FLAG","Y","DERIVED","CLINICAL STUDY SPONSOR"],["CDISCPILOT01","AE","01-701-1341","AESEQ","4","AETRTEM","TREATMENT EMERGENT FLAG","Y","DERIVED","CLINICAL STUDY SPONSOR"],["CDISCPILOT01","AE","01-701-1341","AESEQ","5","AETRTEM","TREATMENT EMERGENT FLAG","Y","DERIVED","CLINICAL STUDY SPONSOR"],["CDISCPILOT01","AE","01-701-1360","AESEQ","1","AETRTEM","TREATMENT EMERGENT FLAG","Y","DERIVED","CLINICAL STUDY SPONSOR"],["CDISCPILOT01","AE","01-701-1360","AESEQ","2","AETRTEM","TREATMENT EMERGENT FLAG","Y","DERIVED","CLINICAL STUDY SPONSOR"],["CDISCPILOT01","AE","01-701-1360","AESEQ","3","AETRTEM","TREATMENT EMERGENT FLAG","Y","DERIVED","CLINICAL STUDY SPONSOR"],["CDISCPILOT01","AE","01-701-1363","AESEQ","1","AETRTEM","TREATMENT EMERGENT FLAG","Y","DERIVED","CLINICAL STUDY SPONSOR"],["CDISCPILOT01","AE","01-701-1363","AESEQ","2","AETRTEM","TREATMENT EMERGENT FLAG","N","DERIVED","CLINICAL STUDY SPONSOR"],["CDISCPILOT01","AE","01-701-1363","AESEQ","3","AETRTEM","TREATMENT EMERGENT FLAG","Y","DERIVED","CLINICAL STUDY SPONSOR"],["CDISCPILOT01","AE","01-701-1363","AESEQ","4","AETRTEM","TREATMENT EMERGENT FLAG","N","DERIVED","CLINICAL STUDY SPONSOR"],["CDISCPILOT01","AE","01-701-1363","AESEQ","5","AETRTEM","TREATMENT EMERGENT FLAG","Y","DERIVED","CLINICAL STUDY SPONSOR"],["CDISCPILOT01","AE","01-701-1363","AESEQ","6","AETRTEM","TREATMENT EMERGENT FLAG","Y","DERIVED","CLINICAL STUDY SPONSOR"],["CDISCPILOT01","AE","01-701-1383","AESEQ","1","AETRTEM","TREATMENT EMERGENT FLAG","Y","DERIVED","CLINICAL STUDY SPONSOR"],["CDISCPILOT01","AE","01-701-1383","AESEQ","10","AETRTEM","TREATMENT EMERGENT FLAG","Y","DERIVED","CLINICAL STUDY SPONSOR"],["CDISCPILOT01","AE","01-701-1383","AESEQ","11","AETRTEM","TREATMENT EMERGENT FLAG","Y","DERIVED","CLINICAL STUDY SPONSOR"],["CDISCPILOT01","AE","01-701-1383","AESEQ","12","AETRTEM","TREATMENT EMERGENT FLAG","Y","DERIVED","CLINICAL STUDY SPONSOR"],["CDISCPILOT01","AE","01-701-1383","AESEQ","2","AETRTEM","TREATMENT EMERGENT FLAG","Y","DERIVED","CLINICAL STUDY SPONSOR"],["CDISCPILOT01","AE","01-701-1383","AESEQ","3","AETRTEM","TREATMENT EMERGENT FLAG","Y","DERIVED","CLINICAL STUDY SPONSOR"],["CDISCPILOT01","AE","01-701-1383","AESEQ","4","AETRTEM","TREATMENT EMERGENT FLAG","Y","DERIVED","CLINICAL STUDY SPONSOR"],["CDISCPILOT01","AE","01-701-1383","AESEQ","5","AETRTEM","TREATMENT EMERGENT FLAG","Y","DERIVED","CLINICAL STUDY SPONSOR"],["CDISCPILOT01","AE","01-701-1383","AESEQ","6","AETRTEM","TREATMENT EMERGENT FLAG","Y","DERIVED","CLINICAL STUDY SPONSOR"],["CDISCPILOT01","AE","01-701-1383","AESEQ","7","AETRTEM","TREATMENT EMERGENT FLAG","Y","DERIVED","CLINICAL STUDY SPONSOR"],["CDISCPILOT01","AE","01-701-1383","AESEQ","8","AETRTEM","TREATMENT EMERGENT FLAG","Y","DERIVED","CLINICAL STUDY SPONSOR"],["CDISCPILOT01","AE","01-701-1383","AESEQ","9","AETRTEM","TREATMENT EMERGENT FLAG","Y","DERIVED","CLINICAL STUDY SPONSOR"],["CDISCPILOT01","AE","01-701-1387","AESEQ","1","AETRTEM","TREATMENT EMERGENT FLAG","Y","DERIVED","CLINICAL STUDY SPONSOR"],["CDISCPILOT01","AE","01-701-1387","AESEQ","2","AETRTEM","TREATMENT EMERGENT FLAG","Y","DERIVED","CLINICAL STUDY SPONSOR"],["CDISCPILOT01","AE","01-701-1392","AESEQ","1","AETRTEM","TREATMENT EMERGENT FLAG","Y","DERIVED","CLINICAL STUDY SPONSOR"],["CDISCPILOT01","AE","01-701-1392","AESEQ","2","AETRTEM","TREATMENT EMERGENT FLAG","Y","DERIVED","CLINICAL STUDY SPONSOR"],["CDISCPILOT01","AE","01-701-1415","AESEQ","1","AETRTEM","TREATMENT EMERGENT FLAG","Y","DERIVED","CLINICAL STUDY SPONSOR"],["CDISCPILOT01","AE","01-701-1415","AESEQ","2","AETRTEM","TREATMENT EMERGENT FLAG","Y","DERIVED","CLINICAL STUDY SPONSOR"],["CDISCPILOT01","AE","01-701-1415","AESEQ","3","AETRTEM","TREATMENT EMERGENT FLAG","Y","DERIVED","CLINICAL STUDY SPONSOR"],["CDISCPILOT01","AE","01-701-1415","AESEQ","4","AETRTEM","TREATMENT EMERGENT FLAG","Y","DERIVED","CLINICAL STUDY SPONSOR"],["CDISCPILOT01","AE","01-701-1415","AESEQ","5","AETRTEM","TREATMENT EMERGENT FLAG","Y","DERIVED","CLINICAL STUDY SPONSOR"],["CDISCPILOT01","AE","01-701-1415","AESEQ","6","AETRTEM","TREATMENT EMERGENT FLAG","Y","DERIVED","CLINICAL STUDY SPONSOR"],["CDISCPILOT01","AE","01-701-1442","AESEQ","1","AETRTEM","TREATMENT EMERGENT FLAG","Y","DERIVED","CLINICAL STUDY SPONSOR"],["CDISCPILOT01","AE","01-701-1444","AESEQ","1","AETRTEM","TREATMENT EMERGENT FLAG","Y","DERIVED","CLINICAL STUDY SPONSOR"],["CDISCPILOT01","AE","01-701-1444","AESEQ","2","AETRTEM","TREATMENT EMERGENT FLAG","Y","DERIVED","CLINICAL STUDY SPONSOR"],["CDISCPILOT01","AE","01-701-1444","AESEQ","3","AETRTEM","TREATMENT EMERGENT FLAG","Y","DERIVED","CLINICAL STUDY SPONSOR"],["CDISCPILOT01","AE","01-701-1444","AESEQ","4","AETRTEM","TREATMENT EMERGENT FLAG","Y","DERIVED","CLINICAL STUDY SPONSOR"],["CDISCPILOT01","AE","01-701-1444","AESEQ","5","AETRTEM","TREATMENT EMERGENT FLAG","Y","DERIVED","CLINICAL STUDY SPONSOR"],["CDISCPILOT01","AE","01-701-1444","AESEQ","6","AETRTEM","TREATMENT EMERGENT FLAG","Y","DERIVED","CLINICAL STUDY SPONSOR"],["CDISCPILOT01","AE","01-701-1444","AESEQ","7","AETRTEM","TREATMENT EMERGENT FLAG","Y","DERIVED","CLINICAL STUDY SPONSOR"],["CDISCPILOT01","AE","01-701-1444","AESEQ","8","AETRTEM","TREATMENT EMERGENT FLAG","Y","DERIVED","CLINICAL STUDY SPONSOR"],["CDISCPILOT01","AE","01-702-1082","AESEQ","1","AETRTEM","TREATMENT EMERGENT FLAG","N","DERIVED","CLINICAL STUDY SPONSOR"],["CDISCPILOT01","AE","01-702-1082","AESEQ","10","AETRTEM","TREATMENT EMERGENT FLAG","Y","DERIVED","CLINICAL STUDY SPONSOR"],["CDISCPILOT01","AE","01-702-1082","AESEQ","2","AETRTEM","TREATMENT EMERGENT FLAG","N","DERIVED","CLINICAL STUDY SPONSOR"],["CDISCPILOT01","AE","01-702-1082","AESEQ","3","AETRTEM","TREATMENT EMERGENT FLAG","N","DERIVED","CLINICAL STUDY SPONSOR"],["CDISCPILOT01","AE","01-702-1082","AESEQ","4","AETRTEM","TREATMENT EMERGENT FLAG","N","DERIVED","CLINICAL STUDY SPONSOR"],["CDISCPILOT01","AE","01-702-1082","AESEQ","5","AETRTEM","TREATMENT EMERGENT FLAG","N","DERIVED","CLINICAL STUDY SPONSOR"],["CDISCPILOT01","AE","01-702-1082","AESEQ","6","AETRTEM","TREATMENT EMERGENT FLAG","N","DERIVED","CLINICAL STUDY SPONSOR"],["CDISCPILOT01","AE","01-702-1082","AESEQ","7","AETRTEM","TREATMENT EMERGENT FLAG","Y","DERIVED","CLINICAL STUDY SPONSOR"],["CDISCPILOT01","AE","01-702-1082","AESEQ","8","AETRTEM","TREATMENT EMERGENT FLAG","Y","DERIVED","CLINICAL STUDY SPONSOR"],["CDISCPILOT01","AE","01-702-1082","AESEQ","9","AETRTEM","TREATMENT EMERGENT FLAG","Y","DERIVED","CLINICAL STUDY SPONSOR"],["CDISCPILOT01","AE","01-703-1042","AESEQ","1","AETRTEM","TREATMENT EMERGENT FLAG","Y","DERIVED","CLINICAL STUDY SPONSOR"],["CDISCPILOT01","AE","01-703-1042","AESEQ","2","AETRTEM","TREATMENT EMERGENT FLAG","Y","DERIVED","CLINICAL STUDY SPONSOR"],["CDISCPILOT01","AE","01-703-1076","AESEQ","1","AETRTEM","TREATMENT EMERGENT FLAG","Y","DERIVED","CLINICAL STUDY SPONSOR"],["CDISCPILOT01","AE","01-703-1076","AESEQ","2","AETRTEM","TREATMENT EMERGENT FLAG","Y","DERIVED","CLINICAL STUDY SPONSOR"],["CDISCPILOT01","AE","01-703-1076","AESEQ","3","AETRTEM","TREATMENT EMERGENT FLAG","N","DERIVED","CLINICAL STUDY SPONSOR"],["CDISCPILOT01","AE","01-703-1076","AESEQ","4","AETRTEM","TREATMENT EMERGENT FLAG","Y","DERIVED","CLINICAL STUDY SPONSOR"],["CDISCPILOT01","AE","01-703-1076","AESEQ","5","AETRTEM","TREATMENT EMERGENT FLAG","Y","DERIVED","CLINICAL STUDY SPONSOR"],["CDISCPILOT01","AE","01-703-1076","AESEQ","6","AETRTEM","TREATMENT EMERGENT FLAG","Y","DERIVED","CLINICAL STUDY SPONSOR"],["CDISCPILOT01","AE","01-703-1076","AESEQ","7","AETRTEM","TREATMENT EMERGENT FLAG","Y","DERIVED","CLINICAL STUDY SPONSOR"],["CDISCPILOT01","AE","01-703-1086","AESEQ","1","AETRTEM","TREATMENT EMERGENT FLAG","Y","DERIVED","CLINICAL STUDY SPONSOR"],["CDISCPILOT01","AE","01-703-1086","AESEQ","2","AETRTEM","TREATMENT EMERGENT FLAG","Y","DERIVED","CLINICAL STUDY SPONSOR"],["CDISCPILOT01","AE","01-703-1086","AESEQ","3","AETRTEM","TREATMENT EMERGENT FLAG","Y","DERIVED","CLINICAL STUDY SPONSOR"],["CDISCPILOT01","AE","01-703-1086","AESEQ","4","AETRTEM","TREATMENT EMERGENT FLAG","Y","DERIVED","CLINICAL STUDY SPONSOR"],["CDISCPILOT01","AE","01-703-1086","AESEQ","5","AETRTEM","TREATMENT EMERGENT FLAG","Y","DERIVED","CLINICAL STUDY SPONSOR"],["CDISCPILOT01","AE","01-703-1086","AESEQ","6","AETRTEM","TREATMENT EMERGENT FLAG","Y","DERIVED","CLINICAL STUDY SPONSOR"],["CDISCPILOT01","AE","01-703-1100","AESEQ","1","AETRTEM","TREATMENT EMERGENT FLAG","Y","DERIVED","CLINICAL STUDY SPONSOR"],["CDISCPILOT01","AE","01-703-1100","AESEQ","2","AETRTEM","TREATMENT EMERGENT FLAG","Y","DERIVED","CLINICAL STUDY SPONSOR"],["CDISCPILOT01","AE","01-703-1100","AESEQ","3","AETRTEM","TREATMENT EMERGENT FLAG","Y","DERIVED","CLINICAL STUDY SPONSOR"],["CDISCPILOT01","AE","01-703-1100","AESEQ","4","AETRTEM","TREATMENT EMERGENT FLAG","Y","DERIVED","CLINICAL STUDY SPONSOR"],["CDISCPILOT01","AE","01-703-1100","AESEQ","5","AETRTEM","TREATMENT EMERGENT FLAG","Y","DERIVED","CLINICAL STUDY SPONSOR"],["CDISCPILOT01","AE","01-703-1100","AESEQ","6","AETRTEM","TREATMENT EMERGENT FLAG","N","DERIVED","CLINICAL STUDY SPONSOR"],["CDISCPILOT01","AE","01-703-1100","AESEQ","7","AETRTEM","TREATMENT EMERGENT FLAG","Y","DERIVED","CLINICAL STUDY SPONSOR"],["CDISCPILOT01","AE","01-703-1100","AESEQ","8","AETRTEM","TREATMENT EMERGENT FLAG","N","DERIVED","CLINICAL STUDY SPONSOR"],["CDISCPILOT01","AE","01-703-1100","AESEQ","9","AETRTEM","TREATMENT EMERGENT FLAG","Y","DERIVED","CLINICAL STUDY SPONSOR"],["CDISCPILOT01","AE","01-703-1119","AESEQ","1","AETRTEM","TREATMENT EMERGENT FLAG","Y","DERIVED","CLINICAL STUDY SPONSOR"],["CDISCPILOT01","AE","01-703-1119","AESEQ","2","AETRTEM","TREATMENT EMERGENT FLAG","Y","DERIVED","CLINICAL STUDY SPONSOR"],["CDISCPILOT01","AE","01-703-1119","AESEQ","3","AETRTEM","TREATMENT EMERGENT FLAG","Y","DERIVED","CLINICAL STUDY SPONSOR"],["CDISCPILOT01","AE","01-703-1119","AESEQ","4","AETRTEM","TREATMENT EMERGENT FLAG","Y","DERIVED","CLINICAL STUDY SPONSOR"],["CDISCPILOT01","AE","01-703-1175","AESEQ","1","AETRTEM","TREATMENT EMERGENT FLAG","N","DERIVED","CLINICAL STUDY SPONSOR"],["CDISCPILOT01","AE","01-703-1182","AESEQ","1","AETRTEM","TREATMENT EMERGENT FLAG","Y","DERIVED","CLINICAL STUDY SPONSOR"],["CDISCPILOT01","AE","01-703-1182","AESEQ","2","AETRTEM","TREATMENT EMERGENT FLAG","Y","DERIVED","CLINICAL STUDY SPONSOR"],["CDISCPILOT01","AE","01-703-1182","AESEQ","3","AETRTEM","TREATMENT EMERGENT FLAG","Y","DERIVED","CLINICAL STUDY SPONSOR"],["CDISCPILOT01","AE","01-703-1182","AESEQ","4","AETRTEM","TREATMENT EMERGENT FLAG","Y","DERIVED","CLINICAL STUDY SPONSOR"],["CDISCPILOT01","AE","01-703-1210","AESEQ","1","AETRTEM","TREATMENT EMERGENT FLAG","Y","DERIVED","CLINICAL STUDY SPONSOR"],["CDISCPILOT01","AE","01-703-1210","AESEQ","2","AETRTEM","TREATMENT EMERGENT FLAG","Y","DERIVED","CLINICAL STUDY SPONSOR"],["CDISCPILOT01","AE","01-703-1210","AESEQ","3","AETRTEM","TREATMENT EMERGENT FLAG","Y","DERIVED","CLINICAL STUDY SPONSOR"],["CDISCPILOT01","AE","01-703-1258","AESEQ","1","AETRTEM","TREATMENT EMERGENT FLAG","Y","DERIVED","CLINICAL STUDY SPONSOR"],["CDISCPILOT01","AE","01-703-1258","AESEQ","2","AETRTEM","TREATMENT EMERGENT FLAG","N","DERIVED","CLINICAL STUDY SPONSOR"],["CDISCPILOT01","AE","01-703-1258","AESEQ","3","AETRTEM","TREATMENT EMERGENT FLAG","Y","DERIVED","CLINICAL STUDY SPONSOR"],["CDISCPILOT01","AE","01-703-1258","AESEQ","4","AETRTEM","TREATMENT EMERGENT FLAG","Y","DERIVED","CLINICAL STUDY SPONSOR"],["CDISCPILOT01","AE","01-703-1258","AESEQ","5","AETRTEM","TREATMENT EMERGENT FLAG","N","DERIVED","CLINICAL STUDY SPONSOR"],["CDISCPILOT01","AE","01-703-1258","AESEQ","6","AETRTEM","TREATMENT EMERGENT FLAG","Y","DERIVED","CLINICAL STUDY SPONSOR"],["CDISCPILOT01","AE","01-703-1258","AESEQ","7","AETRTEM","TREATMENT EMERGENT FLAG","Y","DERIVED","CLINICAL STUDY SPONSOR"],["CDISCPILOT01","AE","01-703-1295","AESEQ","1","AETRTEM","TREATMENT EMERGENT FLAG","Y","DERIVED","CLINICAL STUDY SPONSOR"],["CDISCPILOT01","AE","01-703-1299","AESEQ","1","AETRTEM","TREATMENT EMERGENT FLAG","Y","DERIVED","CLINICAL STUDY SPONSOR"],["CDISCPILOT01","AE","01-703-1299","AESEQ","2","AETRTEM","TREATMENT EMERGENT FLAG","Y","DERIVED","CLINICAL STUDY SPONSOR"],["CDISCPILOT01","AE","01-703-1299","AESEQ","3","AETRTEM","TREATMENT EMERGENT FLAG","N","DERIVED","CLINICAL STUDY SPONSOR"],["CDISCPILOT01","AE","01-703-1299","AESEQ","4","AETRTEM","TREATMENT EMERGENT FLAG","Y","DERIVED","CLINICAL STUDY SPONSOR"],["CDISCPILOT01","AE","01-703-1299","AESEQ","5","AETRTEM","TREATMENT EMERGENT FLAG","Y","DERIVED","CLINICAL STUDY SPONSOR"],["CDISCPILOT01","AE","01-703-1299","AESEQ","6","AETRTEM","TREATMENT EMERGENT FLAG","Y","DERIVED","CLINICAL STUDY SPONSOR"],["CDISCPILOT01","AE","01-703-1299","AESEQ","7","AETRTEM","TREATMENT EMERGENT FLAG","Y","DERIVED","CLINICAL STUDY SPONSOR"],["CDISCPILOT01","AE","01-703-1299","AESEQ","8","AETRTEM","TREATMENT EMERGENT FLAG","Y","DERIVED","CLINICAL STUDY SPONSOR"],["CDISCPILOT01","AE","01-703-1335","AESEQ","1","AETRTEM","TREATMENT EMERGENT FLAG","N","DERIVED","CLINICAL STUDY SPONSOR"],["CDISCPILOT01","AE","01-703-1335","AESEQ","2","AETRTEM","TREATMENT EMERGENT FLAG","N","DERIVED","CLINICAL STUDY SPONSOR"],["CDISCPILOT01","AE","01-703-1403","AESEQ","1","AETRTEM","TREATMENT EMERGENT FLAG","Y","DERIVED","CLINICAL STUDY SPONSOR"],["CDISCPILOT01","AE","01-703-1403","AESEQ","2","AETRTEM","TREATMENT EMERGENT FLAG","Y","DERIVED","CLINICAL STUDY SPONSOR"],["CDISCPILOT01","AE","01-703-1403","AESEQ","3","AETRTEM","TREATMENT EMERGENT FLAG","Y","DERIVED","CLINICAL STUDY SPONSOR"],["CDISCPILOT01","AE","01-703-1403","AESEQ","4","AETRTEM","TREATMENT EMERGENT FLAG","Y","DERIVED","CLINICAL STUDY SPONSOR"],["CDISCPILOT01","AE","01-703-1403","AESEQ","5","AETRTEM","TREATMENT EMERGENT FLAG","Y","DERIVED","CLINICAL STUDY SPONSOR"],["CDISCPILOT01","AE","01-703-1439","AESEQ","1","AETRTEM","TREATMENT EMERGENT FLAG","Y","DERIVED","CLINICAL STUDY SPONSOR"],["CDISCPILOT01","AE","01-703-1439","AESEQ","2","AETRTEM","TREATMENT EMERGENT FLAG","Y","DERIVED","CLINICAL STUDY SPONSOR"],["CDISCPILOT01","AE","01-704-1008","AESEQ","1","AETRTEM","TREATMENT EMERGENT FLAG","Y","DERIVED","CLINICAL STUDY SPONSOR"],["CDISCPILOT01","AE","01-704-1008","AESEQ","2","AETRTEM","TREATMENT EMERGENT FLAG","Y","DERIVED","CLINICAL STUDY SPONSOR"],["CDISCPILOT01","AE","01-704-1008","AESEQ","3","AETRTEM","TREATMENT EMERGENT FLAG","Y","DERIVED","CLINICAL STUDY SPONSOR"],["CDISCPILOT01","AE","01-704-1009","AESEQ","1","AETRTEM","TREATMENT EMERGENT FLAG","Y","DERIVED","CLINICAL STUDY SPONSOR"],["CDISCPILOT01","AE","01-704-1009","AESEQ","2","AETRTEM","TREATMENT EMERGENT FLAG","Y","DERIVED","CLINICAL STUDY SPONSOR"],["CDISCPILOT01","AE","01-704-1009","AESEQ","3","AETRTEM","TREATMENT EMERGENT FLAG","Y","DERIVED","CLINICAL STUDY SPONSOR"],["CDISCPILOT01","AE","01-704-1009","AESEQ","4","AETRTEM","TREATMENT EMERGENT FLAG","Y","DERIVED","CLINICAL STUDY SPONSOR"],["CDISCPILOT01","AE","01-704-1009","AESEQ","5","AETRTEM","TREATMENT EMERGENT FLAG","Y","DERIVED","CLINICAL STUDY SPONSOR"],["CDISCPILOT01","AE","01-704-1009","AESEQ","6","AETRTEM","TREATMENT EMERGENT FLAG","Y","DERIVED","CLINICAL STUDY SPONSOR"],["CDISCPILOT01","AE","01-704-1010","AESEQ","1","AETRTEM","TREATMENT EMERGENT FLAG","Y","DERIVED","CLINICAL STUDY SPONSOR"],["CDISCPILOT01","AE","01-704-1010","AESEQ","2","AETRTEM","TREATMENT EMERGENT FLAG","Y","DERIVED","CLINICAL STUDY SPONSOR"],["CDISCPILOT01","AE","01-704-1010","AESEQ","3","AETRTEM","TREATMENT EMERGENT FLAG","Y","DERIVED","CLINICAL STUDY SPONSOR"],["CDISCPILOT01","AE","01-704-1010","AESEQ","4","AETRTEM","TREATMENT EMERGENT FLAG","Y","DERIVED","CLINICAL STUDY SPONSOR"],["CDISCPILOT01","AE","01-704-1010","AESEQ","5","AETRTEM","TREATMENT EMERGENT FLAG","Y","DERIVED","CLINICAL STUDY SPONSOR"],["CDISCPILOT01","AE","01-704-1010","AESEQ","6","AETRTEM","TREATMENT EMERGENT FLAG","Y","DERIVED","CLINICAL STUDY SPONSOR"],["CDISCPILOT01","AE","01-704-1010","AESEQ","7","AETRTEM","TREATMENT EMERGENT FLAG","Y","DERIVED","CLINICAL STUDY SPONSOR"],["CDISCPILOT01","AE","01-704-1017","AESEQ","1","AETRTEM","TREATMENT EMERGENT FLAG","Y","DERIVED","CLINICAL STUDY SPONSOR"],["CDISCPILOT01","AE","01-704-1017","AESEQ","2","AETRTEM","TREATMENT EMERGENT FLAG","Y","DERIVED","CLINICAL STUDY SPONSOR"],["CDISCPILOT01","AE","01-704-1017","AESEQ","3","AETRTEM","TREATMENT EMERGENT FLAG","Y","DERIVED","CLINICAL STUDY SPONSOR"],["CDISCPILOT01","AE","01-704-1017","AESEQ","4","AETRTEM","TREATMENT EMERGENT FLAG","Y","DERIVED","CLINICAL STUDY SPONSOR"],["CDISCPILOT01","AE","01-704-1017","AESEQ","5","AETRTEM","TREATMENT EMERGENT FLAG","Y","DERIVED","CLINICAL STUDY SPONSOR"],["CDISCPILOT01","AE","01-704-1017","AESEQ","6","AETRTEM","TREATMENT EMERGENT FLAG","Y","DERIVED","CLINICAL STUDY SPONSOR"],["CDISCPILOT01","AE","01-704-1017","AESEQ","7","AETRTEM","TREATMENT EMERGENT FLAG","Y","DERIVED","CLINICAL STUDY SPONSOR"],["CDISCPILOT01","AE","01-704-1017","AESEQ","8","AETRTEM","TREATMENT EMERGENT FLAG","Y","DERIVED","CLINICAL STUDY SPONSOR"],["CDISCPILOT01","AE","01-704-1025","AESEQ","1","AETRTEM","TREATMENT EMERGENT FLAG","Y","DERIVED","CLINICAL STUDY SPONSOR"],["CDISCPILOT01","AE","01-704-1025","AESEQ","2","AETRTEM","TREATMENT EMERGENT FLAG","Y","DERIVED","CLINICAL STUDY SPONSOR"],["CDISCPILOT01","AE","01-704-1025","AESEQ","3","AETRTEM","TREATMENT EMERGENT FLAG","Y","DERIVED","CLINICAL STUDY SPONSOR"],["CDISCPILOT01","AE","01-704-1025","AESEQ","4","AETRTEM","TREATMENT EMERGENT FLAG","Y","DERIVED","CLINICAL STUDY SPONSOR"],["CDISCPILOT01","AE","01-704-1025","AESEQ","5","AETRTEM","TREATMENT EMERGENT FLAG","Y","DERIVED","CLINICAL STUDY SPONSOR"],["CDISCPILOT01","AE","01-704-1025","AESEQ","6","AETRTEM","TREATMENT EMERGENT FLAG","Y","DERIVED","CLINICAL STUDY SPONSOR"],["CDISCPILOT01","AE","01-704-1065","AESEQ","1","AETRTEM","TREATMENT EMERGENT FLAG","Y","DERIVED","CLINICAL STUDY SPONSOR"],["CDISCPILOT01","AE","01-704-1065","AESEQ","10","AETRTEM","TREATMENT EMERGENT FLAG","Y","DERIVED","CLINICAL STUDY SPONSOR"],["CDISCPILOT01","AE","01-704-1065","AESEQ","2","AETRTEM","TREATMENT EMERGENT FLAG","Y","DERIVED","CLINICAL STUDY SPONSOR"],["CDISCPILOT01","AE","01-704-1065","AESEQ","3","AETRTEM","TREATMENT EMERGENT FLAG","Y","DERIVED","CLINICAL STUDY SPONSOR"],["CDISCPILOT01","AE","01-704-1065","AESEQ","4","AETRTEM","TREATMENT EMERGENT FLAG","Y","DERIVED","CLINICAL STUDY SPONSOR"],["CDISCPILOT01","AE","01-704-1065","AESEQ","5","AETRTEM","TREATMENT EMERGENT FLAG","Y","DERIVED","CLINICAL STUDY SPONSOR"],["CDISCPILOT01","AE","01-704-1065","AESEQ","6","AETRTEM","TREATMENT EMERGENT FLAG","Y","DERIVED","CLINICAL STUDY SPONSOR"],["CDISCPILOT01","AE","01-704-1065","AESEQ","7","AETRTEM","TREATMENT EMERGENT FLAG","Y","DERIVED","CLINICAL STUDY SPONSOR"],["CDISCPILOT01","AE","01-704-1065","AESEQ","8","AETRTEM","TREATMENT EMERGENT FLAG","Y","DERIVED","CLINICAL STUDY SPONSOR"],["CDISCPILOT01","AE","01-704-1065","AESEQ","9","AETRTEM","TREATMENT EMERGENT FLAG","Y","DERIVED","CLINICAL STUDY SPONSOR"],["CDISCPILOT01","AE","01-704-1074","AESEQ","1","AETRTEM","TREATMENT EMERGENT FLAG","Y","DERIVED","CLINICAL STUDY SPONSOR"],["CDISCPILOT01","AE","01-704-1074","AESEQ","2","AETRTEM","TREATMENT EMERGENT FLAG","Y","DERIVED","CLINICAL STUDY SPONSOR"],["CDISCPILOT01","AE","01-704-1093","AESEQ","1","AETRTEM","TREATMENT EMERGENT FLAG","Y","DERIVED","CLINICAL STUDY SPONSOR"],["CDISCPILOT01","AE","01-704-1093","AESEQ","2","AETRTEM","TREATMENT EMERGENT FLAG","Y","DERIVED","CLINICAL STUDY SPONSOR"],["CDISCPILOT01","AE","01-704-1093","AESEQ","3","AETRTEM","TREATMENT EMERGENT FLAG","Y","DERIVED","CLINICAL STUDY SPONSOR"],["CDISCPILOT01","AE","01-704-1093","AESEQ","4","AETRTEM","TREATMENT EMERGENT FLAG","Y","DERIVED","CLINICAL STUDY SPONSOR"],["CDISCPILOT01","AE","01-704-1114","AESEQ","1","AETRTEM","TREATMENT EMERGENT FLAG","Y","DERIVED","CLINICAL STUDY SPONSOR"],["CDISCPILOT01","AE","01-704-1114","AESEQ","2","AETRTEM","TREATMENT EMERGENT FLAG","Y","DERIVED","CLINICAL STUDY SPONSOR"],["CDISCPILOT01","AE","01-704-1114","AESEQ","3","AETRTEM","TREATMENT EMERGENT FLAG","Y","DERIVED","CLINICAL STUDY SPONSOR"],["CDISCPILOT01","AE","01-704-1114","AESEQ","4","AETRTEM","TREATMENT EMERGENT FLAG","Y","DERIVED","CLINICAL STUDY SPONSOR"],["CDISCPILOT01","AE","01-704-1114","AESEQ","5","AETRTEM","TREATMENT EMERGENT FLAG","Y","DERIVED","CLINICAL STUDY SPONSOR"],["CDISCPILOT01","AE","01-704-1120","AESEQ","1","AETRTEM","TREATMENT EMERGENT FLAG","Y","DERIVED","CLINICAL STUDY SPONSOR"],["CDISCPILOT01","AE","01-704-1120","AESEQ","2","AETRTEM","TREATMENT EMERGENT FLAG","Y","DERIVED","CLINICAL STUDY SPONSOR"],["CDISCPILOT01","AE","01-704-1120","AESEQ","3","AETRTEM","TREATMENT EMERGENT FLAG","Y","DERIVED","CLINICAL STUDY SPONSOR"],["CDISCPILOT01","AE","01-704-1120","AESEQ","4","AETRTEM","TREATMENT EMERGENT FLAG","Y","DERIVED","CLINICAL STUDY SPONSOR"],["CDISCPILOT01","AE","01-704-1120","AESEQ","5","AETRTEM","TREATMENT EMERGENT FLAG","Y","DERIVED","CLINICAL STUDY SPONSOR"],["CDISCPILOT01","AE","01-704-1120","AESEQ","6","AETRTEM","TREATMENT EMERGENT FLAG","Y","DERIVED","CLINICAL STUDY SPONSOR"],["CDISCPILOT01","AE","01-704-1135","AESEQ","1","AETRTEM","TREATMENT EMERGENT FLAG","Y","DERIVED","CLINICAL STUDY SPONSOR"],["CDISCPILOT01","AE","01-704-1135","AESEQ","2","AETRTEM","TREATMENT EMERGENT FLAG","Y","DERIVED","CLINICAL STUDY SPONSOR"],["CDISCPILOT01","AE","01-704-1164","AESEQ","1","AETRTEM","TREATMENT EMERGENT FLAG","Y","DERIVED","CLINICAL STUDY SPONSOR"],["CDISCPILOT01","AE","01-704-1164","AESEQ","2","AETRTEM","TREATMENT EMERGENT FLAG","Y","DERIVED","CLINICAL STUDY SPONSOR"],["CDISCPILOT01","AE","01-704-1164","AESEQ","3","AETRTEM","TREATMENT EMERGENT FLAG","Y","DERIVED","CLINICAL STUDY SPONSOR"],["CDISCPILOT01","AE","01-704-1218","AESEQ","1","AETRTEM","TREATMENT EMERGENT FLAG","Y","DERIVED","CLINICAL STUDY SPONSOR"],["CDISCPILOT01","AE","01-704-1241","AESEQ","1","AETRTEM","TREATMENT EMERGENT FLAG","N","DERIVED","CLINICAL STUDY SPONSOR"],["CDISCPILOT01","AE","01-704-1241","AESEQ","2","AETRTEM","TREATMENT EMERGENT FLAG","Y","DERIVED","CLINICAL STUDY SPONSOR"],["CDISCPILOT01","AE","01-704-1266","AESEQ","1","AETRTEM","TREATMENT EMERGENT FLAG","N","DERIVED","CLINICAL STUDY SPONSOR"],["CDISCPILOT01","AE","01-704-1266","AESEQ","10","AETRTEM","TREATMENT EMERGENT FLAG","Y","DERIVED","CLINICAL STUDY SPONSOR"],["CDISCPILOT01","AE","01-704-1266","AESEQ","11","AETRTEM","TREATMENT EMERGENT FLAG","Y","DERIVED","CLINICAL STUDY SPONSOR"],["CDISCPILOT01","AE","01-704-1266","AESEQ","12","AETRTEM","TREATMENT EMERGENT FLAG","Y","DERIVED","CLINICAL STUDY SPONSOR"],["CDISCPILOT01","AE","01-704-1266","AESEQ","13","AETRTEM","TREATMENT EMERGENT FLAG","Y","DERIVED","CLINICAL STUDY SPONSOR"],["CDISCPILOT01","AE","01-704-1266","AESEQ","14","AETRTEM","TREATMENT EMERGENT FLAG","Y","DERIVED","CLINICAL STUDY SPONSOR"],["CDISCPILOT01","AE","01-704-1266","AESEQ","15","AETRTEM","TREATMENT EMERGENT FLAG","Y","DERIVED","CLINICAL STUDY SPONSOR"],["CDISCPILOT01","AE","01-704-1266","AESEQ","16","AETRTEM","TREATMENT EMERGENT FLAG","Y","DERIVED","CLINICAL STUDY SPONSOR"],["CDISCPILOT01","AE","01-704-1266","AESEQ","2","AETRTEM","TREATMENT EMERGENT FLAG","Y","DERIVED","CLINICAL STUDY SPONSOR"],["CDISCPILOT01","AE","01-704-1266","AESEQ","3","AETRTEM","TREATMENT EMERGENT FLAG","Y","DERIVED","CLINICAL STUDY SPONSOR"],["CDISCPILOT01","AE","01-704-1266","AESEQ","4","AETRTEM","TREATMENT EMERGENT FLAG","Y","DERIVED","CLINICAL STUDY SPONSOR"],["CDISCPILOT01","AE","01-704-1266","AESEQ","5","AETRTEM","TREATMENT EMERGENT FLAG","Y","DERIVED","CLINICAL STUDY SPONSOR"],["CDISCPILOT01","AE","01-704-1266","AESEQ","6","AETRTEM","TREATMENT EMERGENT FLAG","Y","DERIVED","CLINICAL STUDY SPONSOR"],["CDISCPILOT01","AE","01-704-1266","AESEQ","7","AETRTEM","TREATMENT EMERGENT FLAG","Y","DERIVED","CLINICAL STUDY SPONSOR"],["CDISCPILOT01","AE","01-704-1266","AESEQ","8","AETRTEM","TREATMENT EMERGENT FLAG","Y","DERIVED","CLINICAL STUDY SPONSOR"],["CDISCPILOT01","AE","01-704-1266","AESEQ","9","AETRTEM","TREATMENT EMERGENT FLAG","Y","DERIVED","CLINICAL STUDY SPONSOR"],["CDISCPILOT01","AE","01-704-1323","AESEQ","1","AETRTEM","TREATMENT EMERGENT FLAG","Y","DERIVED","CLINICAL STUDY SPONSOR"],["CDISCPILOT01","AE","01-704-1323","AESEQ","2","AETRTEM","TREATMENT EMERGENT FLAG","Y","DERIVED","CLINICAL STUDY SPONSOR"],["CDISCPILOT01","AE","01-704-1323","AESEQ","3","AETRTEM","TREATMENT EMERGENT FLAG","Y","DERIVED","CLINICAL STUDY SPONSOR"],["CDISCPILOT01","AE","01-704-1323","AESEQ","4","AETRTEM","TREATMENT EMERGENT FLAG","Y","DERIVED","CLINICAL STUDY SPONSOR"],["CDISCPILOT01","AE","01-704-1325","AESEQ","1","AETRTEM","TREATMENT EMERGENT FLAG","Y","DERIVED","CLINICAL STUDY SPONSOR"],["CDISCPILOT01","AE","01-704-1325","AESEQ","2","AETRTEM","TREATMENT EMERGENT FLAG","Y","DERIVED","CLINICAL STUDY SPONSOR"],["CDISCPILOT01","AE","01-704-1332","AESEQ","1","AETRTEM","TREATMENT EMERGENT FLAG","Y","DERIVED","CLINICAL STUDY SPONSOR"],["CDISCPILOT01","AE","01-704-1332","AESEQ","2","AETRTEM","TREATMENT EMERGENT FLAG","Y","DERIVED","CLINICAL STUDY SPONSOR"],["CDISCPILOT01","AE","01-704-1332","AESEQ","3","AETRTEM","TREATMENT EMERGENT FLAG","Y","DERIVED","CLINICAL STUDY SPONSOR"],["CDISCPILOT01","AE","01-704-1332","AESEQ","4","AETRTEM","TREATMENT EMERGENT FLAG","Y","DERIVED","CLINICAL STUDY SPONSOR"],["CDISCPILOT01","AE","01-704-1332","AESEQ","5","AETRTEM","TREATMENT EMERGENT FLAG","Y","DERIVED","CLINICAL STUDY SPONSOR"],["CDISCPILOT01","AE","01-704-1332","AESEQ","6","AETRTEM","TREATMENT EMERGENT FLAG","Y","DERIVED","CLINICAL STUDY SPONSOR"],["CDISCPILOT01","AE","01-704-1351","AESEQ","1","AETRTEM","TREATMENT EMERGENT FLAG","Y","DERIVED","CLINICAL STUDY SPONSOR"],["CDISCPILOT01","AE","01-704-1351","AESEQ","2","AETRTEM","TREATMENT EMERGENT FLAG","Y","DERIVED","CLINICAL STUDY SPONSOR"],["CDISCPILOT01","AE","01-704-1351","AESEQ","3","AETRTEM","TREATMENT EMERGENT FLAG","Y","DERIVED","CLINICAL STUDY SPONSOR"],["CDISCPILOT01","AE","01-704-1351","AESEQ","4","AETRTEM","TREATMENT EMERGENT FLAG","Y","DERIVED","CLINICAL STUDY SPONSOR"],["CDISCPILOT01","AE","01-704-1388","AESEQ","1","AETRTEM","TREATMENT EMERGENT FLAG","N","DERIVED","CLINICAL STUDY SPONSOR"],["CDISCPILOT01","AE","01-704-1435","AESEQ","1","AETRTEM","TREATMENT EMERGENT FLAG","Y","DERIVED","CLINICAL STUDY SPONSOR"],["CDISCPILOT01","AE","01-704-1445","AESEQ","1","AETRTEM","TREATMENT EMERGENT FLAG","Y","DERIVED","CLINICAL STUDY SPONSOR"],["CDISCPILOT01","AE","01-705-1031","AESEQ","1","AETRTEM","TREATMENT EMERGENT FLAG","Y","DERIVED","CLINICAL STUDY SPONSOR"],["CDISCPILOT01","AE","01-705-1059","AESEQ","1","AETRTEM","TREATMENT EMERGENT FLAG","Y","DERIVED","CLINICAL STUDY SPONSOR"],["CDISCPILOT01","AE","01-705-1186","AESEQ","1","AETRTEM","TREATMENT EMERGENT FLAG","Y","DERIVED","CLINICAL STUDY SPONSOR"],["CDISCPILOT01","AE","01-705-1199","AESEQ","1","AETRTEM","TREATMENT EMERGENT FLAG","Y","DERIVED","CLINICAL STUDY SPONSOR"],["CDISCPILOT01","AE","01-705-1199","AESEQ","2","AETRTEM","TREATMENT EMERGENT FLAG","Y","DERIVED","CLINICAL STUDY SPONSOR"],["CDISCPILOT01","AE","01-705-1280","AESEQ","1","AETRTEM","TREATMENT EMERGENT FLAG","Y","DERIVED","CLINICAL STUDY SPONSOR"],["CDISCPILOT01","AE","01-705-1281","AESEQ","1","AETRTEM","TREATMENT EMERGENT FLAG","Y","DERIVED","CLINICAL STUDY SPONSOR"],["CDISCPILOT01","AE","01-705-1281","AESEQ","2","AETRTEM","TREATMENT EMERGENT FLAG","Y","DERIVED","CLINICAL STUDY SPONSOR"],["CDISCPILOT01","AE","01-705-1281","AESEQ","3","AETRTEM","TREATMENT EMERGENT FLAG","Y","DERIVED","CLINICAL STUDY SPONSOR"],["CDISCPILOT01","AE","01-705-1292","AESEQ","1","AETRTEM","TREATMENT EMERGENT FLAG","Y","DERIVED","CLINICAL STUDY SPONSOR"],["CDISCPILOT01","AE","01-705-1292","AESEQ","2","AETRTEM","TREATMENT EMERGENT FLAG","Y","DERIVED","CLINICAL STUDY SPONSOR"],["CDISCPILOT01","AE","01-705-1303","AESEQ","1","AETRTEM","TREATMENT EMERGENT FLAG","Y","DERIVED","CLINICAL STUDY SPONSOR"],["CDISCPILOT01","AE","01-705-1303","AESEQ","2","AETRTEM","TREATMENT EMERGENT FLAG","Y","DERIVED","CLINICAL STUDY SPONSOR"],["CDISCPILOT01","AE","01-705-1303","AESEQ","3","AETRTEM","TREATMENT EMERGENT FLAG","Y","DERIVED","CLINICAL STUDY SPONSOR"],["CDISCPILOT01","AE","01-705-1303","AESEQ","4","AETRTEM","TREATMENT EMERGENT FLAG","Y","DERIVED","CLINICAL STUDY SPONSOR"],["CDISCPILOT01","AE","01-705-1310","AESEQ","1","AETRTEM","TREATMENT EMERGENT FLAG","Y","DERIVED","CLINICAL STUDY SPONSOR"],["CDISCPILOT01","AE","01-705-1310","AESEQ","2","AETRTEM","TREATMENT EMERGENT FLAG","Y","DERIVED","CLINICAL STUDY SPONSOR"],["CDISCPILOT01","AE","01-705-1349","AESEQ","1","AETRTEM","TREATMENT EMERGENT FLAG","Y","DERIVED","CLINICAL STUDY SPONSOR"],["CDISCPILOT01","AE","01-705-1349","AESEQ","2","AETRTEM","TREATMENT EMERGENT FLAG","Y","DERIVED","CLINICAL STUDY SPONSOR"],["CDISCPILOT01","AE","01-705-1349","AESEQ","3","AETRTEM","TREATMENT EMERGENT FLAG","Y","DERIVED","CLINICAL STUDY SPONSOR"],["CDISCPILOT01","AE","01-705-1349","AESEQ","4","AETRTEM","TREATMENT EMERGENT FLAG","Y","DERIVED","CLINICAL STUDY SPONSOR"],["CDISCPILOT01","AE","01-705-1393","AESEQ","1","AETRTEM","TREATMENT EMERGENT FLAG","Y","DERIVED","CLINICAL STUDY SPONSOR"],["CDISCPILOT01","AE","01-705-1393","AESEQ","2","AETRTEM","TREATMENT EMERGENT FLAG","N","DERIVED","CLINICAL STUDY SPONSOR"],["CDISCPILOT01","AE","01-705-1393","AESEQ","3","AETRTEM","TREATMENT EMERGENT FLAG","Y","DERIVED","CLINICAL STUDY SPONSOR"],["CDISCPILOT01","AE","01-705-1393","AESEQ","4","AETRTEM","TREATMENT EMERGENT FLAG","N","DERIVED","CLINICAL STUDY SPONSOR"],["CDISCPILOT01","AE","01-705-1431","AESEQ","1","AETRTEM","TREATMENT EMERGENT FLAG","N","DERIVED","CLINICAL STUDY SPONSOR"],["CDISCPILOT01","AE","01-705-1431","AESEQ","2","AETRTEM","TREATMENT EMERGENT FLAG","Y","DERIVED","CLINICAL STUDY SPONSOR"],["CDISCPILOT01","AE","01-706-1041","AESEQ","1","AETRTEM","TREATMENT EMERGENT FLAG","N","DERIVED","CLINICAL STUDY SPONSOR"],["CDISCPILOT01","AE","01-706-1041","AESEQ","2","AETRTEM","TREATMENT EMERGENT FLAG","Y","DERIVED","CLINICAL STUDY SPONSOR"],["CDISCPILOT01","AE","01-706-1041","AESEQ","3","AETRTEM","TREATMENT EMERGENT FLAG","Y","DERIVED","CLINICAL STUDY SPONSOR"],["CDISCPILOT01","AE","01-706-1041","AESEQ","4","AETRTEM","TREATMENT EMERGENT FLAG","Y","DERIVED","CLINICAL STUDY SPONSOR"],["CDISCPILOT01","AE","01-706-1041","AESEQ","5","AETRTEM","TREATMENT EMERGENT FLAG","Y","DERIVED","CLINICAL STUDY SPONSOR"],["CDISCPILOT01","AE","01-706-1041","AESEQ","6","AETRTEM","TREATMENT EMERGENT FLAG","Y","DERIVED","CLINICAL STUDY SPONSOR"],["CDISCPILOT01","AE","01-706-1041","AESEQ","7","AETRTEM","TREATMENT EMERGENT FLAG","N","DERIVED","CLINICAL STUDY SPONSOR"],["CDISCPILOT01","AE","01-706-1041","AESEQ","8","AETRTEM","TREATMENT EMERGENT FLAG","Y","DERIVED","CLINICAL STUDY SPONSOR"],["CDISCPILOT01","AE","01-706-1041","AESEQ","9","AETRTEM","TREATMENT EMERGENT FLAG","Y","DERIVED","CLINICAL STUDY SPONSOR"],["CDISCPILOT01","AE","01-706-1049","AESEQ","1","AETRTEM","TREATMENT EMERGENT FLAG","Y","DERIVED","CLINICAL STUDY SPONSOR"],["CDISCPILOT01","AE","01-706-1049","AESEQ","2","AETRTEM","TREATMENT EMERGENT FLAG","Y","DERIVED","CLINICAL STUDY SPONSOR"],["CDISCPILOT01","AE","01-706-1384","AESEQ","1","AETRTEM","TREATMENT EMERGENT FLAG","Y","DERIVED","CLINICAL STUDY SPONSOR"],["CDISCPILOT01","AE","01-706-1384","AESEQ","10","AETRTEM","TREATMENT EMERGENT FLAG","Y","DERIVED","CLINICAL STUDY SPONSOR"],["CDISCPILOT01","AE","01-706-1384","AESEQ","2","AETRTEM","TREATMENT EMERGENT FLAG","Y","DERIVED","CLINICAL STUDY SPONSOR"],["CDISCPILOT01","AE","01-706-1384","AESEQ","3","AETRTEM","TREATMENT EMERGENT FLAG","Y","DERIVED","CLINICAL STUDY SPONSOR"],["CDISCPILOT01","AE","01-706-1384","AESEQ","4","AETRTEM","TREATMENT EMERGENT FLAG","Y","DERIVED","CLINICAL STUDY SPONSOR"],["CDISCPILOT01","AE","01-706-1384","AESEQ","5","AETRTEM","TREATMENT EMERGENT FLAG","Y","DERIVED","CLINICAL STUDY SPONSOR"],["CDISCPILOT01","AE","01-706-1384","AESEQ","6","AETRTEM","TREATMENT EMERGENT FLAG","Y","DERIVED","CLINICAL STUDY SPONSOR"],["CDISCPILOT01","AE","01-706-1384","AESEQ","7","AETRTEM","TREATMENT EMERGENT FLAG","Y","DERIVED","CLINICAL STUDY SPONSOR"],["CDISCPILOT01","AE","01-706-1384","AESEQ","8","AETRTEM","TREATMENT EMERGENT FLAG","Y","DERIVED","CLINICAL STUDY SPONSOR"],["CDISCPILOT01","AE","01-706-1384","AESEQ","9","AETRTEM","TREATMENT EMERGENT FLAG","Y","DERIVED","CLINICAL STUDY SPONSOR"],["CDISCPILOT01","AE","01-707-1206","AESEQ","1","AETRTEM","TREATMENT EMERGENT FLAG","Y","DERIVED","CLINICAL STUDY SPONSOR"],["CDISCPILOT01","AE","01-707-1206","AESEQ","2","AETRTEM","TREATMENT EMERGENT FLAG","Y","DERIVED","CLINICAL STUDY SPONSOR"],["CDISCPILOT01","AE","01-707-1206","AESEQ","3","AETRTEM","TREATMENT EMERGENT FLAG","Y","DERIVED","CLINICAL STUDY SPONSOR"],["CDISCPILOT01","AE","01-707-1206","AESEQ","4","AETRTEM","TREATMENT EMERGENT FLAG","Y","DERIVED","CLINICAL STUDY SPONSOR"],["CDISCPILOT01","AE","01-707-1206","AESEQ","5","AETRTEM","TREATMENT EMERGENT FLAG","Y","DERIVED","CLINICAL STUDY SPONSOR"],["CDISCPILOT01","AE","01-707-1206","AESEQ","6","AETRTEM","TREATMENT EMERGENT FLAG","Y","DERIVED","CLINICAL STUDY SPONSOR"],["CDISCPILOT01","AE","01-707-1206","AESEQ","7","AETRTEM","TREATMENT EMERGENT FLAG","Y","DERIVED","CLINICAL STUDY SPONSOR"],["CDISCPILOT01","AE","01-707-1206","AESEQ","8","AETRTEM","TREATMENT EMERGENT FLAG","Y","DERIVED","CLINICAL STUDY SPONSOR"],["CDISCPILOT01","AE","01-708-1019","AESEQ","1","AETRTEM","TREATMENT EMERGENT FLAG","Y","DERIVED","CLINICAL STUDY SPONSOR"],["CDISCPILOT01","AE","01-708-1019","AESEQ","2","AETRTEM","TREATMENT EMERGENT FLAG","Y","DERIVED","CLINICAL STUDY SPONSOR"],["CDISCPILOT01","AE","01-708-1019","AESEQ","3","AETRTEM","TREATMENT EMERGENT FLAG","Y","DERIVED","CLINICAL STUDY SPONSOR"],["CDISCPILOT01","AE","01-708-1019","AESEQ","4","AETRTEM","TREATMENT EMERGENT FLAG","Y","DERIVED","CLINICAL STUDY SPONSOR"],["CDISCPILOT01","AE","01-708-1019","AESEQ","5","AETRTEM","TREATMENT EMERGENT FLAG","Y","DERIVED","CLINICAL STUDY SPONSOR"],["CDISCPILOT01","AE","01-708-1032","AESEQ","1","AETRTEM","TREATMENT EMERGENT FLAG","Y","DERIVED","CLINICAL STUDY SPONSOR"],["CDISCPILOT01","AE","01-708-1084","AESEQ","1","AETRTEM","TREATMENT EMERGENT FLAG","Y","DERIVED","CLINICAL STUDY SPONSOR"],["CDISCPILOT01","AE","01-708-1084","AESEQ","2","AETRTEM","TREATMENT EMERGENT FLAG","Y","DERIVED","CLINICAL STUDY SPONSOR"],["CDISCPILOT01","AE","01-708-1084","AESEQ","3","AETRTEM","TREATMENT EMERGENT FLAG","Y","DERIVED","CLINICAL STUDY SPONSOR"],["CDISCPILOT01","AE","01-708-1084","AESEQ","4","AETRTEM","TREATMENT EMERGENT FLAG","Y","DERIVED","CLINICAL STUDY SPONSOR"],["CDISCPILOT01","AE","01-708-1084","AESEQ","5","AETRTEM","TREATMENT EMERGENT FLAG","Y","DERIVED","CLINICAL STUDY SPONSOR"],["CDISCPILOT01","AE","01-708-1084","AESEQ","6","AETRTEM","TREATMENT EMERGENT FLAG","Y","DERIVED","CLINICAL STUDY SPONSOR"],["CDISCPILOT01","AE","01-708-1087","AESEQ","1","AETRTEM","TREATMENT EMERGENT FLAG","Y","DERIVED","CLINICAL STUDY SPONSOR"],["CDISCPILOT01","AE","01-708-1087","AESEQ","2","AETRTEM","TREATMENT EMERGENT FLAG","Y","DERIVED","CLINICAL STUDY SPONSOR"],["CDISCPILOT01","AE","01-708-1087","AESEQ","3","AETRTEM","TREATMENT EMERGENT FLAG","Y","DERIVED","CLINICAL STUDY SPONSOR"],["CDISCPILOT01","AE","01-708-1087","AESEQ","4","AETRTEM","TREATMENT EMERGENT FLAG","Y","DERIVED","CLINICAL STUDY SPONSOR"],["CDISCPILOT01","AE","01-708-1087","AESEQ","5","AETRTEM","TREATMENT EMERGENT FLAG","Y","DERIVED","CLINICAL STUDY SPONSOR"],["CDISCPILOT01","AE","01-708-1087","AESEQ","6","AETRTEM","TREATMENT EMERGENT FLAG","Y","DERIVED","CLINICAL STUDY SPONSOR"],["CDISCPILOT01","AE","01-708-1158","AESEQ","1","AETRTEM","TREATMENT EMERGENT FLAG","Y","DERIVED","CLINICAL STUDY SPONSOR"],["CDISCPILOT01","AE","01-708-1158","AESEQ","2","AETRTEM","TREATMENT EMERGENT FLAG","Y","DERIVED","CLINICAL STUDY SPONSOR"],["CDISCPILOT01","AE","01-708-1178","AESEQ","1","AETRTEM","TREATMENT EMERGENT FLAG","N","DERIVED","CLINICAL STUDY SPONSOR"],["CDISCPILOT01","AE","01-708-1178","AESEQ","2","AETRTEM","TREATMENT EMERGENT FLAG","Y","DERIVED","CLINICAL STUDY SPONSOR"],["CDISCPILOT01","AE","01-708-1178","AESEQ","3","AETRTEM","TREATMENT EMERGENT FLAG","Y","DERIVED","CLINICAL STUDY SPONSOR"],["CDISCPILOT01","AE","01-708-1178","AESEQ","4","AETRTEM","TREATMENT EMERGENT FLAG","Y","DERIVED","CLINICAL STUDY SPONSOR"],["CDISCPILOT01","AE","01-708-1178","AESEQ","5","AETRTEM","TREATMENT EMERGENT FLAG","Y","DERIVED","CLINICAL STUDY SPONSOR"],["CDISCPILOT01","AE","01-708-1178","AESEQ","6","AETRTEM","TREATMENT EMERGENT FLAG","Y","DERIVED","CLINICAL STUDY SPONSOR"],["CDISCPILOT01","AE","01-708-1178","AESEQ","7","AETRTEM","TREATMENT EMERGENT FLAG","Y","DERIVED","CLINICAL STUDY SPONSOR"],["CDISCPILOT01","AE","01-708-1178","AESEQ","8","AETRTEM","TREATMENT EMERGENT FLAG","Y","DERIVED","CLINICAL STUDY SPONSOR"],["CDISCPILOT01","AE","01-708-1178","AESEQ","9","AETRTEM","TREATMENT EMERGENT FLAG","Y","DERIVED","CLINICAL STUDY SPONSOR"],["CDISCPILOT01","AE","01-708-1213","AESEQ","1","AETRTEM","TREATMENT EMERGENT FLAG","Y","DERIVED","CLINICAL STUDY SPONSOR"],["CDISCPILOT01","AE","01-708-1213","AESEQ","2","AETRTEM","TREATMENT EMERGENT FLAG","Y","DERIVED","CLINICAL STUDY SPONSOR"],["CDISCPILOT01","AE","01-708-1216","AESEQ","1","AETRTEM","TREATMENT EMERGENT FLAG","Y","DERIVED","CLINICAL STUDY SPONSOR"],["CDISCPILOT01","AE","01-708-1216","AESEQ","2","AETRTEM","TREATMENT EMERGENT FLAG","Y","DERIVED","CLINICAL STUDY SPONSOR"],["CDISCPILOT01","AE","01-708-1216","AESEQ","3","AETRTEM","TREATMENT EMERGENT FLAG","Y","DERIVED","CLINICAL STUDY SPONSOR"],["CDISCPILOT01","AE","01-708-1216","AESEQ","4","AETRTEM","TREATMENT EMERGENT FLAG","Y","DERIVED","CLINICAL STUDY SPONSOR"],["CDISCPILOT01","AE","01-708-1253","AESEQ","1","AETRTEM","TREATMENT EMERGENT FLAG","N","DERIVED","CLINICAL STUDY SPONSOR"],["CDISCPILOT01","AE","01-708-1253","AESEQ","2","AETRTEM","TREATMENT EMERGENT FLAG","N","DERIVED","CLINICAL STUDY SPONSOR"],["CDISCPILOT01","AE","01-708-1253","AESEQ","3","AETRTEM","TREATMENT EMERGENT FLAG","Y","DERIVED","CLINICAL STUDY SPONSOR"],["CDISCPILOT01","AE","01-708-1253","AESEQ","4","AETRTEM","TREATMENT EMERGENT FLAG","N","DERIVED","CLINICAL STUDY SPONSOR"],["CDISCPILOT01","AE","01-708-1253","AESEQ","5","AETRTEM","TREATMENT EMERGENT FLAG","N","DERIVED","CLINICAL STUDY SPONSOR"],["CDISCPILOT01","AE","01-708-1253","AESEQ","6","AETRTEM","TREATMENT EMERGENT FLAG","Y","DERIVED","CLINICAL STUDY SPONSOR"],["CDISCPILOT01","AE","01-708-1253","AESEQ","7","AETRTEM","TREATMENT EMERGENT FLAG","Y","DERIVED","CLINICAL STUDY SPONSOR"],["CDISCPILOT01","AE","01-708-1253","AESEQ","8","AETRTEM","TREATMENT EMERGENT FLAG","Y","DERIVED","CLINICAL STUDY SPONSOR"],["CDISCPILOT01","AE","01-708-1272","AESEQ","1","AETRTEM","TREATMENT EMERGENT FLAG","Y","DERIVED","CLINICAL STUDY SPONSOR"],["CDISCPILOT01","AE","01-708-1272","AESEQ","10","AETRTEM","TREATMENT EMERGENT FLAG","Y","DERIVED","CLINICAL STUDY SPONSOR"],["CDISCPILOT01","AE","01-708-1272","AESEQ","11","AETRTEM","TREATMENT EMERGENT FLAG","Y","DERIVED","CLINICAL STUDY SPONSOR"],["CDISCPILOT01","AE","01-708-1272","AESEQ","12","AETRTEM","TREATMENT EMERGENT FLAG","Y","DERIVED","CLINICAL STUDY SPONSOR"],["CDISCPILOT01","AE","01-708-1272","AESEQ","2","AETRTEM","TREATMENT EMERGENT FLAG","Y","DERIVED","CLINICAL STUDY SPONSOR"],["CDISCPILOT01","AE","01-708-1272","AESEQ","3","AETRTEM","TREATMENT EMERGENT FLAG","Y","DERIVED","CLINICAL STUDY SPONSOR"],["CDISCPILOT01","AE","01-708-1272","AESEQ","4","AETRTEM","TREATMENT EMERGENT FLAG","Y","DERIVED","CLINICAL STUDY SPONSOR"],["CDISCPILOT01","AE","01-708-1272","AESEQ","5","AETRTEM","TREATMENT EMERGENT FLAG","Y","DERIVED","CLINICAL STUDY SPONSOR"],["CDISCPILOT01","AE","01-708-1272","AESEQ","6","AETRTEM","TREATMENT EMERGENT FLAG","Y","DERIVED","CLINICAL STUDY SPONSOR"],["CDISCPILOT01","AE","01-708-1272","AESEQ","7","AETRTEM","TREATMENT EMERGENT FLAG","Y","DERIVED","CLINICAL STUDY SPONSOR"],["CDISCPILOT01","AE","01-708-1272","AESEQ","8","AETRTEM","TREATMENT EMERGENT FLAG","Y","DERIVED","CLINICAL STUDY SPONSOR"],["CDISCPILOT01","AE","01-708-1272","AESEQ","9","AETRTEM","TREATMENT EMERGENT FLAG","Y","DERIVED","CLINICAL STUDY SPONSOR"],["CDISCPILOT01","AE","01-708-1286","AESEQ","1","AETRTEM","TREATMENT EMERGENT FLAG","Y","DERIVED","CLINICAL STUDY SPONSOR"],["CDISCPILOT01","AE","01-708-1286","AESEQ","2","AETRTEM","TREATMENT EMERGENT FLAG","Y","DERIVED","CLINICAL STUDY SPONSOR"],["CDISCPILOT01","AE","01-708-1286","AESEQ","3","AETRTEM","TREATMENT EMERGENT FLAG","Y","DERIVED","CLINICAL STUDY SPONSOR"],["CDISCPILOT01","AE","01-708-1286","AESEQ","4","AETRTEM","TREATMENT EMERGENT FLAG","Y","DERIVED","CLINICAL STUDY SPONSOR"],["CDISCPILOT01","AE","01-708-1296","AESEQ","1","AETRTEM","TREATMENT EMERGENT FLAG","Y","DERIVED","CLINICAL STUDY SPONSOR"],["CDISCPILOT01","AE","01-708-1296","AESEQ","2","AETRTEM","TREATMENT EMERGENT FLAG","Y","DERIVED","CLINICAL STUDY SPONSOR"],["CDISCPILOT01","AE","01-708-1296","AESEQ","3","AETRTEM","TREATMENT EMERGENT FLAG","Y","DERIVED","CLINICAL STUDY SPONSOR"],["CDISCPILOT01","AE","01-708-1296","AESEQ","4","AETRTEM","TREATMENT EMERGENT FLAG","Y","DERIVED","CLINICAL STUDY SPONSOR"],["CDISCPILOT01","AE","01-708-1296","AESEQ","5","AETRTEM","TREATMENT EMERGENT FLAG","Y","DERIVED","CLINICAL STUDY SPONSOR"],["CDISCPILOT01","AE","01-708-1296","AESEQ","6","AETRTEM","TREATMENT EMERGENT FLAG","Y","DERIVED","CLINICAL STUDY SPONSOR"],["CDISCPILOT01","AE","01-708-1296","AESEQ","7","AETRTEM","TREATMENT EMERGENT FLAG","Y","DERIVED","CLINICAL STUDY SPONSOR"],["CDISCPILOT01","AE","01-708-1297","AESEQ","1","AETRTEM","TREATMENT EMERGENT FLAG","Y","DERIVED","CLINICAL STUDY SPONSOR"],["CDISCPILOT01","AE","01-708-1297","AESEQ","2","AETRTEM","TREATMENT EMERGENT FLAG","Y","DERIVED","CLINICAL STUDY SPONSOR"],["CDISCPILOT01","AE","01-708-1297","AESEQ","3","AETRTEM","TREATMENT EMERGENT FLAG","Y","DERIVED","CLINICAL STUDY SPONSOR"],["CDISCPILOT01","AE","01-708-1316","AESEQ","1","AETRTEM","TREATMENT EMERGENT FLAG","Y","DERIVED","CLINICAL STUDY SPONSOR"],["CDISCPILOT01","AE","01-708-1316","AESEQ","2","AETRTEM","TREATMENT EMERGENT FLAG","Y","DERIVED","CLINICAL STUDY SPONSOR"],["CDISCPILOT01","AE","01-708-1336","AESEQ","1","AETRTEM","TREATMENT EMERGENT FLAG","Y","DERIVED","CLINICAL STUDY SPONSOR"],["CDISCPILOT01","AE","01-708-1336","AESEQ","2","AETRTEM","TREATMENT EMERGENT FLAG","Y","DERIVED","CLINICAL STUDY SPONSOR"],["CDISCPILOT01","AE","01-708-1336","AESEQ","3","AETRTEM","TREATMENT EMERGENT FLAG","Y","DERIVED","CLINICAL STUDY SPONSOR"],["CDISCPILOT01","AE","01-708-1336","AESEQ","4","AETRTEM","TREATMENT EMERGENT FLAG","Y","DERIVED","CLINICAL STUDY SPONSOR"],["CDISCPILOT01","AE","01-708-1336","AESEQ","5","AETRTEM","TREATMENT EMERGENT FLAG","Y","DERIVED","CLINICAL STUDY SPONSOR"],["CDISCPILOT01","AE","01-708-1336","AESEQ","6","AETRTEM","TREATMENT EMERGENT FLAG","Y","DERIVED","CLINICAL STUDY SPONSOR"],["CDISCPILOT01","AE","01-708-1336","AESEQ","7","AETRTEM","TREATMENT EMERGENT FLAG","Y","DERIVED","CLINICAL STUDY SPONSOR"],["CDISCPILOT01","AE","01-708-1347","AESEQ","1","AETRTEM","TREATMENT EMERGENT FLAG","Y","DERIVED","CLINICAL STUDY SPONSOR"],["CDISCPILOT01","AE","01-708-1347","AESEQ","2","AETRTEM","TREATMENT EMERGENT FLAG","Y","DERIVED","CLINICAL STUDY SPONSOR"],["CDISCPILOT01","AE","01-708-1347","AESEQ","3","AETRTEM","TREATMENT EMERGENT FLAG","Y","DERIVED","CLINICAL STUDY SPONSOR"],["CDISCPILOT01","AE","01-708-1347","AESEQ","4","AETRTEM","TREATMENT EMERGENT FLAG","Y","DERIVED","CLINICAL STUDY SPONSOR"],["CDISCPILOT01","AE","01-708-1347","AESEQ","5","AETRTEM","TREATMENT EMERGENT FLAG","Y","DERIVED","CLINICAL STUDY SPONSOR"],["CDISCPILOT01","AE","01-708-1347","AESEQ","6","AETRTEM","TREATMENT EMERGENT FLAG","Y","DERIVED","CLINICAL STUDY SPONSOR"],["CDISCPILOT01","AE","01-708-1347","AESEQ","7","AETRTEM","TREATMENT EMERGENT FLAG","Y","DERIVED","CLINICAL STUDY SPONSOR"],["CDISCPILOT01","AE","01-708-1347","AESEQ","8","AETRTEM","TREATMENT EMERGENT FLAG","Y","DERIVED","CLINICAL STUDY SPONSOR"],["CDISCPILOT01","AE","01-708-1348","AESEQ","1","AETRTEM","TREATMENT EMERGENT FLAG","Y","DERIVED","CLINICAL STUDY SPONSOR"],["CDISCPILOT01","AE","01-708-1348","AESEQ","2","AETRTEM","TREATMENT EMERGENT FLAG","Y","DERIVED","CLINICAL STUDY SPONSOR"],["CDISCPILOT01","AE","01-708-1348","AESEQ","3","AETRTEM","TREATMENT EMERGENT FLAG","Y","DERIVED","CLINICAL STUDY SPONSOR"],["CDISCPILOT01","AE","01-708-1353","AESEQ","1","AETRTEM","TREATMENT EMERGENT FLAG","Y","DERIVED","CLINICAL STUDY SPONSOR"],["CDISCPILOT01","AE","01-708-1353","AESEQ","2","AETRTEM","TREATMENT EMERGENT FLAG","Y","DERIVED","CLINICAL STUDY SPONSOR"],["CDISCPILOT01","AE","01-708-1353","AESEQ","3","AETRTEM","TREATMENT EMERGENT FLAG","Y","DERIVED","CLINICAL STUDY SPONSOR"],["CDISCPILOT01","AE","01-708-1372","AESEQ","1","AETRTEM","TREATMENT EMERGENT FLAG","N","DERIVED","CLINICAL STUDY SPONSOR"],["CDISCPILOT01","AE","01-708-1406","AESEQ","1","AETRTEM","TREATMENT EMERGENT FLAG","Y","DERIVED","CLINICAL STUDY SPONSOR"],["CDISCPILOT01","AE","01-708-1406","AESEQ","2","AETRTEM","TREATMENT EMERGENT FLAG","Y","DERIVED","CLINICAL STUDY SPONSOR"],["CDISCPILOT01","AE","01-708-1428","AESEQ","1","AETRTEM","TREATMENT EMERGENT FLAG","Y","DERIVED","CLINICAL STUDY SPONSOR"],["CDISCPILOT01","AE","01-708-1428","AESEQ","2","AETRTEM","TREATMENT EMERGENT FLAG","Y","DERIVED","CLINICAL STUDY SPONSOR"],["CDISCPILOT01","AE","01-708-1428","AESEQ","3","AETRTEM","TREATMENT EMERGENT FLAG","Y","DERIVED","CLINICAL STUDY SPONSOR"],["CDISCPILOT01","AE","01-708-1428","AESEQ","4","AETRTEM","TREATMENT EMERGENT FLAG","Y","DERIVED","CLINICAL STUDY SPONSOR"],["CDISCPILOT01","AE","01-708-1428","AESEQ","5","AETRTEM","TREATMENT EMERGENT FLAG","Y","DERIVED","CLINICAL STUDY SPONSOR"],["CDISCPILOT01","AE","01-708-1428","AESEQ","6","AETRTEM","TREATMENT EMERGENT FLAG","Y","DERIVED","CLINICAL STUDY SPONSOR"],["CDISCPILOT01","AE","01-708-1428","AESEQ","7","AETRTEM","TREATMENT EMERGENT FLAG","Y","DERIVED","CLINICAL STUDY SPONSOR"],["CDISCPILOT01","AE","01-709-1007","AESEQ","1","AETRTEM","TREATMENT EMERGENT FLAG","Y","DERIVED","CLINICAL STUDY SPONSOR"],["CDISCPILOT01","AE","01-709-1007","AESEQ","2","AETRTEM","TREATMENT EMERGENT FLAG","Y","DERIVED","CLINICAL STUDY SPONSOR"],["CDISCPILOT01","AE","01-709-1007","AESEQ","3","AETRTEM","TREATMENT EMERGENT FLAG","Y","DERIVED","CLINICAL STUDY SPONSOR"],["CDISCPILOT01","AE","01-709-1007","AESEQ","4","AETRTEM","TREATMENT EMERGENT FLAG","Y","DERIVED","CLINICAL STUDY SPONSOR"],["CDISCPILOT01","AE","01-709-1020","AESEQ","1","AETRTEM","TREATMENT EMERGENT FLAG","Y","DERIVED","CLINICAL STUDY SPONSOR"],["CDISCPILOT01","AE","01-709-1020","AESEQ","2","AETRTEM","TREATMENT EMERGENT FLAG","Y","DERIVED","CLINICAL STUDY SPONSOR"],["CDISCPILOT01","AE","01-709-1020","AESEQ","3","AETRTEM","TREATMENT EMERGENT FLAG","Y","DERIVED","CLINICAL STUDY SPONSOR"],["CDISCPILOT01","AE","01-709-1020","AESEQ","4","AETRTEM","TREATMENT EMERGENT FLAG","Y","DERIVED","CLINICAL STUDY SPONSOR"],["CDISCPILOT01","AE","01-709-1029","AESEQ","1","AETRTEM","TREATMENT EMERGENT FLAG","Y","DERIVED","CLINICAL STUDY SPONSOR"],["CDISCPILOT01","AE","01-709-1029","AESEQ","10","AETRTEM","TREATMENT EMERGENT FLAG","Y","DERIVED","CLINICAL STUDY SPONSOR"],["CDISCPILOT01","AE","01-709-1029","AESEQ","11","AETRTEM","TREATMENT EMERGENT FLAG","Y","DERIVED","CLINICAL STUDY SPONSOR"],["CDISCPILOT01","AE","01-709-1029","AESEQ","12","AETRTEM","TREATMENT EMERGENT FLAG","Y","DERIVED","CLINICAL STUDY SPONSOR"],["CDISCPILOT01","AE","01-709-1029","AESEQ","13","AETRTEM","TREATMENT EMERGENT FLAG","Y","DERIVED","CLINICAL STUDY SPONSOR"],["CDISCPILOT01","AE","01-709-1029","AESEQ","14","AETRTEM","TREATMENT EMERGENT FLAG","Y","DERIVED","CLINICAL STUDY SPONSOR"],["CDISCPILOT01","AE","01-709-1029","AESEQ","15","AETRTEM","TREATMENT EMERGENT FLAG","Y","DERIVED","CLINICAL STUDY SPONSOR"],["CDISCPILOT01","AE","01-709-1029","AESEQ","16","AETRTEM","TREATMENT EMERGENT FLAG","Y","DERIVED","CLINICAL STUDY SPONSOR"],["CDISCPILOT01","AE","01-709-1029","AESEQ","2","AETRTEM","TREATMENT EMERGENT FLAG","Y","DERIVED","CLINICAL STUDY SPONSOR"],["CDISCPILOT01","AE","01-709-1029","AESEQ","3","AETRTEM","TREATMENT EMERGENT FLAG","Y","DERIVED","CLINICAL STUDY SPONSOR"],["CDISCPILOT01","AE","01-709-1029","AESEQ","4","AETRTEM","TREATMENT EMERGENT FLAG","Y","DERIVED","CLINICAL STUDY SPONSOR"],["CDISCPILOT01","AE","01-709-1029","AESEQ","5","AETRTEM","TREATMENT EMERGENT FLAG","Y","DERIVED","CLINICAL STUDY SPONSOR"],["CDISCPILOT01","AE","01-709-1029","AESEQ","6","AETRTEM","TREATMENT EMERGENT FLAG","Y","DERIVED","CLINICAL STUDY SPONSOR"],["CDISCPILOT01","AE","01-709-1029","AESEQ","7","AETRTEM","TREATMENT EMERGENT FLAG","Y","DERIVED","CLINICAL STUDY SPONSOR"],["CDISCPILOT01","AE","01-709-1029","AESEQ","8","AETRTEM","TREATMENT EMERGENT FLAG","Y","DERIVED","CLINICAL STUDY SPONSOR"],["CDISCPILOT01","AE","01-709-1029","AESEQ","9","AETRTEM","TREATMENT EMERGENT FLAG","Y","DERIVED","CLINICAL STUDY SPONSOR"],["CDISCPILOT01","AE","01-709-1081","AESEQ","1","AETRTEM","TREATMENT EMERGENT FLAG","Y","DERIVED","CLINICAL STUDY SPONSOR"],["CDISCPILOT01","AE","01-709-1081","AESEQ","2","AETRTEM","TREATMENT EMERGENT FLAG","Y","DERIVED","CLINICAL STUDY SPONSOR"],["CDISCPILOT01","AE","01-709-1088","AESEQ","1","AETRTEM","TREATMENT EMERGENT FLAG","Y","DERIVED","CLINICAL STUDY SPONSOR"],["CDISCPILOT01","AE","01-709-1088","AESEQ","2","AETRTEM","TREATMENT EMERGENT FLAG","Y","DERIVED","CLINICAL STUDY SPONSOR"],["CDISCPILOT01","AE","01-709-1099","AESEQ","1","AETRTEM","TREATMENT EMERGENT FLAG","Y","DERIVED","CLINICAL STUDY SPONSOR"],["CDISCPILOT01","AE","01-709-1099","AESEQ","2","AETRTEM","TREATMENT EMERGENT FLAG","Y","DERIVED","CLINICAL STUDY SPONSOR"],["CDISCPILOT01","AE","01-709-1099","AESEQ","3","AETRTEM","TREATMENT EMERGENT FLAG","Y","DERIVED","CLINICAL STUDY SPONSOR"],["CDISCPILOT01","AE","01-709-1099","AESEQ","4","AETRTEM","TREATMENT EMERGENT FLAG","Y","DERIVED","CLINICAL STUDY SPONSOR"],["CDISCPILOT01","AE","01-709-1099","AESEQ","5","AETRTEM","TREATMENT EMERGENT FLAG","Y","DERIVED","CLINICAL STUDY SPONSOR"],["CDISCPILOT01","AE","01-709-1099","AESEQ","6","AETRTEM","TREATMENT EMERGENT FLAG","Y","DERIVED","CLINICAL STUDY SPONSOR"],["CDISCPILOT01","AE","01-709-1099","AESEQ","7","AETRTEM","TREATMENT EMERGENT FLAG","Y","DERIVED","CLINICAL STUDY SPONSOR"],["CDISCPILOT01","AE","01-709-1099","AESEQ","8","AETRTEM","TREATMENT EMERGENT FLAG","Y","DERIVED","CLINICAL STUDY SPONSOR"],["CDISCPILOT01","AE","01-709-1102","AESEQ","1","AETRTEM","TREATMENT EMERGENT FLAG","Y","DERIVED","CLINICAL STUDY SPONSOR"],["CDISCPILOT01","AE","01-709-1102","AESEQ","2","AETRTEM","TREATMENT EMERGENT FLAG","Y","DERIVED","CLINICAL STUDY SPONSOR"],["CDISCPILOT01","AE","01-709-1102","AESEQ","3","AETRTEM","TREATMENT EMERGENT FLAG","Y","DERIVED","CLINICAL STUDY SPONSOR"],["CDISCPILOT01","AE","01-709-1102","AESEQ","4","AETRTEM","TREATMENT EMERGENT FLAG","Y","DERIVED","CLINICAL STUDY SPONSOR"],["CDISCPILOT01","AE","01-709-1102","AESEQ","5","AETRTEM","TREATMENT EMERGENT FLAG","Y","DERIVED","CLINICAL STUDY SPONSOR"],["CDISCPILOT01","AE","01-709-1102","AESEQ","6","AETRTEM","TREATMENT EMERGENT FLAG","Y","DERIVED","CLINICAL STUDY SPONSOR"],["CDISCPILOT01","AE","01-709-1168","AESEQ","1","AETRTEM","TREATMENT EMERGENT FLAG","Y","DERIVED","CLINICAL STUDY SPONSOR"],["CDISCPILOT01","AE","01-709-1168","AESEQ","2","AETRTEM","TREATMENT EMERGENT FLAG","Y","DERIVED","CLINICAL STUDY SPONSOR"],["CDISCPILOT01","AE","01-709-1168","AESEQ","3","AETRTEM","TREATMENT EMERGENT FLAG","Y","DERIVED","CLINICAL STUDY SPONSOR"],["CDISCPILOT01","AE","01-709-1168","AESEQ","4","AETRTEM","TREATMENT EMERGENT FLAG","Y","DERIVED","CLINICAL STUDY SPONSOR"],["CDISCPILOT01","AE","01-709-1168","AESEQ","5","AETRTEM","TREATMENT EMERGENT FLAG","Y","DERIVED","CLINICAL STUDY SPONSOR"],["CDISCPILOT01","AE","01-709-1168","AESEQ","6","AETRTEM","TREATMENT EMERGENT FLAG","Y","DERIVED","CLINICAL STUDY SPONSOR"],["CDISCPILOT01","AE","01-709-1217","AESEQ","1","AETRTEM","TREATMENT EMERGENT FLAG","Y","DERIVED","CLINICAL STUDY SPONSOR"],["CDISCPILOT01","AE","01-709-1217","AESEQ","10","AETRTEM","TREATMENT EMERGENT FLAG","Y","DERIVED","CLINICAL STUDY SPONSOR"],["CDISCPILOT01","AE","01-709-1217","AESEQ","11","AETRTEM","TREATMENT EMERGENT FLAG","Y","DERIVED","CLINICAL STUDY SPONSOR"],["CDISCPILOT01","AE","01-709-1217","AESEQ","2","AETRTEM","TREATMENT EMERGENT FLAG","Y","DERIVED","CLINICAL STUDY SPONSOR"],["CDISCPILOT01","AE","01-709-1217","AESEQ","3","AETRTEM","TREATMENT EMERGENT FLAG","Y","DERIVED","CLINICAL STUDY SPONSOR"],["CDISCPILOT01","AE","01-709-1217","AESEQ","4","AETRTEM","TREATMENT EMERGENT FLAG","Y","DERIVED","CLINICAL STUDY SPONSOR"],["CDISCPILOT01","AE","01-709-1217","AESEQ","5","AETRTEM","TREATMENT EMERGENT FLAG","Y","DERIVED","CLINICAL STUDY SPONSOR"],["CDISCPILOT01","AE","01-709-1217","AESEQ","6","AETRTEM","TREATMENT EMERGENT FLAG","Y","DERIVED","CLINICAL STUDY SPONSOR"],["CDISCPILOT01","AE","01-709-1217","AESEQ","7","AETRTEM","TREATMENT EMERGENT FLAG","Y","DERIVED","CLINICAL STUDY SPONSOR"],["CDISCPILOT01","AE","01-709-1217","AESEQ","8","AETRTEM","TREATMENT EMERGENT FLAG","Y","DERIVED","CLINICAL STUDY SPONSOR"],["CDISCPILOT01","AE","01-709-1217","AESEQ","9","AETRTEM","TREATMENT EMERGENT FLAG","Y","DERIVED","CLINICAL STUDY SPONSOR"],["CDISCPILOT01","AE","01-709-1238","AESEQ","1","AETRTEM","TREATMENT EMERGENT FLAG","Y","DERIVED","CLINICAL STUDY SPONSOR"],["CDISCPILOT01","AE","01-709-1238","AESEQ","2","AETRTEM","TREATMENT EMERGENT FLAG","Y","DERIVED","CLINICAL STUDY SPONSOR"],["CDISCPILOT01","AE","01-709-1238","AESEQ","3","AETRTEM","TREATMENT EMERGENT FLAG","Y","DERIVED","CLINICAL STUDY SPONSOR"],["CDISCPILOT01","AE","01-709-1238","AESEQ","4","AETRTEM","TREATMENT EMERGENT FLAG","Y","DERIVED","CLINICAL STUDY SPONSOR"],["CDISCPILOT01","AE","01-709-1238","AESEQ","5","AETRTEM","TREATMENT EMERGENT FLAG","Y","DERIVED","CLINICAL STUDY SPONSOR"],["CDISCPILOT01","AE","01-709-1238","AESEQ","6","AETRTEM","TREATMENT EMERGENT FLAG","Y","DERIVED","CLINICAL STUDY SPONSOR"],["CDISCPILOT01","AE","01-709-1238","AESEQ","7","AETRTEM","TREATMENT EMERGENT FLAG","Y","DERIVED","CLINICAL STUDY SPONSOR"],["CDISCPILOT01","AE","01-709-1238","AESEQ","8","AETRTEM","TREATMENT EMERGENT FLAG","Y","DERIVED","CLINICAL STUDY SPONSOR"],["CDISCPILOT01","AE","01-709-1259","AESEQ","1","AETRTEM","TREATMENT EMERGENT FLAG","Y","DERIVED","CLINICAL STUDY SPONSOR"],["CDISCPILOT01","AE","01-709-1259","AESEQ","10","AETRTEM","TREATMENT EMERGENT FLAG","Y","DERIVED","CLINICAL STUDY SPONSOR"],["CDISCPILOT01","AE","01-709-1259","AESEQ","11","AETRTEM","TREATMENT EMERGENT FLAG","Y","DERIVED","CLINICAL STUDY SPONSOR"],["CDISCPILOT01","AE","01-709-1259","AESEQ","2","AETRTEM","TREATMENT EMERGENT FLAG","Y","DERIVED","CLINICAL STUDY SPONSOR"],["CDISCPILOT01","AE","01-709-1259","AESEQ","3","AETRTEM","TREATMENT EMERGENT FLAG","Y","DERIVED","CLINICAL STUDY SPONSOR"],["CDISCPILOT01","AE","01-709-1259","AESEQ","4","AETRTEM","TREATMENT EMERGENT FLAG","Y","DERIVED","CLINICAL STUDY SPONSOR"],["CDISCPILOT01","AE","01-709-1259","AESEQ","5","AETRTEM","TREATMENT EMERGENT FLAG","Y","DERIVED","CLINICAL STUDY SPONSOR"],["CDISCPILOT01","AE","01-709-1259","AESEQ","6","AETRTEM","TREATMENT EMERGENT FLAG","Y","DERIVED","CLINICAL STUDY SPONSOR"],["CDISCPILOT01","AE","01-709-1259","AESEQ","7","AETRTEM","TREATMENT EMERGENT FLAG","Y","DERIVED","CLINICAL STUDY SPONSOR"],["CDISCPILOT01","AE","01-709-1259","AESEQ","8","AETRTEM","TREATMENT EMERGENT FLAG","Y","DERIVED","CLINICAL STUDY SPONSOR"],["CDISCPILOT01","AE","01-709-1259","AESEQ","9","AETRTEM","TREATMENT EMERGENT FLAG","Y","DERIVED","CLINICAL STUDY SPONSOR"],["CDISCPILOT01","AE","01-709-1285","AESEQ","1","AETRTEM","TREATMENT EMERGENT FLAG","Y","DERIVED","CLINICAL STUDY SPONSOR"],["CDISCPILOT01","AE","01-709-1285","AESEQ","2","AETRTEM","TREATMENT EMERGENT FLAG","Y","DERIVED","CLINICAL STUDY SPONSOR"],["CDISCPILOT01","AE","01-709-1285","AESEQ","3","AETRTEM","TREATMENT EMERGENT FLAG","Y","DERIVED","CLINICAL STUDY SPONSOR"],["CDISCPILOT01","AE","01-709-1285","AESEQ","4","AETRTEM","TREATMENT EMERGENT FLAG","Y","DERIVED","CLINICAL STUDY SPONSOR"],["CDISCPILOT01","AE","01-709-1285","AESEQ","5","AETRTEM","TREATMENT EMERGENT FLAG","Y","DERIVED","CLINICAL STUDY SPONSOR"],["CDISCPILOT01","AE","01-709-1285","AESEQ","6","AETRTEM","TREATMENT EMERGENT FLAG","Y","DERIVED","CLINICAL STUDY SPONSOR"],["CDISCPILOT01","AE","01-709-1301","AESEQ","1","AETRTEM","TREATMENT EMERGENT FLAG","Y","DERIVED","CLINICAL STUDY SPONSOR"],["CDISCPILOT01","AE","01-709-1306","AESEQ","1","AETRTEM","TREATMENT EMERGENT FLAG","Y","DERIVED","CLINICAL STUDY SPONSOR"],["CDISCPILOT01","AE","01-709-1306","AESEQ","2","AETRTEM","TREATMENT EMERGENT FLAG","Y","DERIVED","CLINICAL STUDY SPONSOR"],["CDISCPILOT01","AE","01-709-1306","AESEQ","3","AETRTEM","TREATMENT EMERGENT FLAG","Y","DERIVED","CLINICAL STUDY SPONSOR"],["CDISCPILOT01","AE","01-709-1306","AESEQ","4","AETRTEM","TREATMENT EMERGENT FLAG","Y","DERIVED","CLINICAL STUDY SPONSOR"],["CDISCPILOT01","AE","01-709-1306","AESEQ","5","AETRTEM","TREATMENT EMERGENT FLAG","Y","DERIVED","CLINICAL STUDY SPONSOR"],["CDISCPILOT01","AE","01-709-1306","AESEQ","6","AETRTEM","TREATMENT EMERGENT FLAG","Y","DERIVED","CLINICAL STUDY SPONSOR"],["CDISCPILOT01","AE","01-709-1306","AESEQ","7","AETRTEM","TREATMENT EMERGENT FLAG","Y","DERIVED","CLINICAL STUDY SPONSOR"],["CDISCPILOT01","AE","01-709-1306","AESEQ","8","AETRTEM","TREATMENT EMERGENT FLAG","Y","DERIVED","CLINICAL STUDY SPONSOR"],["CDISCPILOT01","AE","01-709-1306","AESEQ","9","AETRTEM","TREATMENT EMERGENT FLAG","Y","DERIVED","CLINICAL STUDY SPONSOR"],["CDISCPILOT01","AE","01-709-1309","AESEQ","1","AETRTEM","TREATMENT EMERGENT FLAG","N","DERIVED","CLINICAL STUDY SPONSOR"],["CDISCPILOT01","AE","01-709-1309","AESEQ","10","AETRTEM","TREATMENT EMERGENT FLAG","N","DERIVED","CLINICAL STUDY SPONSOR"],["CDISCPILOT01","AE","01-709-1309","AESEQ","11","AETRTEM","TREATMENT EMERGENT FLAG","Y","DERIVED","CLINICAL STUDY SPONSOR"],["CDISCPILOT01","AE","01-709-1309","AESEQ","12","AETRTEM","TREATMENT EMERGENT FLAG","Y","DERIVED","CLINICAL STUDY SPONSOR"],["CDISCPILOT01","AE","01-709-1309","AESEQ","13","AETRTEM","TREATMENT EMERGENT FLAG","N","DERIVED","CLINICAL STUDY SPONSOR"],["CDISCPILOT01","AE","01-709-1309","AESEQ","14","AETRTEM","TREATMENT EMERGENT FLAG","Y","DERIVED","CLINICAL STUDY SPONSOR"],["CDISCPILOT01","AE","01-709-1309","AESEQ","15","AETRTEM","TREATMENT EMERGENT FLAG","Y","DERIVED","CLINICAL STUDY SPONSOR"],["CDISCPILOT01","AE","01-709-1309","AESEQ","2","AETRTEM","TREATMENT EMERGENT FLAG","N","DERIVED","CLINICAL STUDY SPONSOR"],["CDISCPILOT01","AE","01-709-1309","AESEQ","3","AETRTEM","TREATMENT EMERGENT FLAG","Y","DERIVED","CLINICAL STUDY SPONSOR"],["CDISCPILOT01","AE","01-709-1309","AESEQ","4","AETRTEM","TREATMENT EMERGENT FLAG","Y","DERIVED","CLINICAL STUDY SPONSOR"],["CDISCPILOT01","AE","01-709-1309","AESEQ","5","AETRTEM","TREATMENT EMERGENT FLAG","Y","DERIVED","CLINICAL STUDY SPONSOR"],["CDISCPILOT01","AE","01-709-1309","AESEQ","6","AETRTEM","TREATMENT EMERGENT FLAG","Y","DERIVED","CLINICAL STUDY SPONSOR"],["CDISCPILOT01","AE","01-709-1309","AESEQ","7","AETRTEM","TREATMENT EMERGENT FLAG","Y","DERIVED","CLINICAL STUDY SPONSOR"],["CDISCPILOT01","AE","01-709-1309","AESEQ","8","AETRTEM","TREATMENT EMERGENT FLAG","Y","DERIVED","CLINICAL STUDY SPONSOR"],["CDISCPILOT01","AE","01-709-1309","AESEQ","9","AETRTEM","TREATMENT EMERGENT FLAG","Y","DERIVED","CLINICAL STUDY SPONSOR"],["CDISCPILOT01","AE","01-709-1312","AESEQ","1","AETRTEM","TREATMENT EMERGENT FLAG","Y","DERIVED","CLINICAL STUDY SPONSOR"],["CDISCPILOT01","AE","01-709-1312","AESEQ","2","AETRTEM","TREATMENT EMERGENT FLAG","Y","DERIVED","CLINICAL STUDY SPONSOR"],["CDISCPILOT01","AE","01-709-1326","AESEQ","1","AETRTEM","TREATMENT EMERGENT FLAG","Y","DERIVED","CLINICAL STUDY SPONSOR"],["CDISCPILOT01","AE","01-709-1326","AESEQ","2","AETRTEM","TREATMENT EMERGENT FLAG","Y","DERIVED","CLINICAL STUDY SPONSOR"],["CDISCPILOT01","AE","01-709-1326","AESEQ","3","AETRTEM","TREATMENT EMERGENT FLAG","Y","DERIVED","CLINICAL STUDY SPONSOR"],["CDISCPILOT01","AE","01-709-1326","AESEQ","4","AETRTEM","TREATMENT EMERGENT FLAG","Y","DERIVED","CLINICAL STUDY SPONSOR"],["CDISCPILOT01","AE","01-709-1326","AESEQ","5","AETRTEM","TREATMENT EMERGENT FLAG","Y","DERIVED","CLINICAL STUDY SPONSOR"],["CDISCPILOT01","AE","01-709-1326","AESEQ","6","AETRTEM","TREATMENT EMERGENT FLAG","Y","DERIVED","CLINICAL STUDY SPONSOR"],["CDISCPILOT01","AE","01-709-1329","AESEQ","1","AETRTEM","TREATMENT EMERGENT FLAG","Y","DERIVED","CLINICAL STUDY SPONSOR"],["CDISCPILOT01","AE","01-709-1329","AESEQ","2","AETRTEM","TREATMENT EMERGENT FLAG","Y","DERIVED","CLINICAL STUDY SPONSOR"],["CDISCPILOT01","AE","01-709-1339","AESEQ","1","AETRTEM","TREATMENT EMERGENT FLAG","N","DERIVED","CLINICAL STUDY SPONSOR"],["CDISCPILOT01","AE","01-709-1339","AESEQ","2","AETRTEM","TREATMENT EMERGENT FLAG","Y","DERIVED","CLINICAL STUDY SPONSOR"],["CDISCPILOT01","AE","01-709-1424","AESEQ","1","AETRTEM","TREATMENT EMERGENT FLAG","Y","DERIVED","CLINICAL STUDY SPONSOR"],["CDISCPILOT01","AE","01-710-1002","AESEQ","1","AETRTEM","TREATMENT EMERGENT FLAG","Y","DERIVED","CLINICAL STUDY SPONSOR"],["CDISCPILOT01","AE","01-710-1002","AESEQ","2","AETRTEM","TREATMENT EMERGENT FLAG","Y","DERIVED","CLINICAL STUDY SPONSOR"],["CDISCPILOT01","AE","01-710-1006","AESEQ","1","AETRTEM","TREATMENT EMERGENT FLAG","Y","DERIVED","CLINICAL STUDY SPONSOR"],["CDISCPILOT01","AE","01-710-1006","AESEQ","10","AETRTEM","TREATMENT EMERGENT FLAG","Y","DERIVED","CLINICAL STUDY SPONSOR"],["CDISCPILOT01","AE","01-710-1006","AESEQ","11","AETRTEM","TREATMENT EMERGENT FLAG","Y","DERIVED","CLINICAL STUDY SPONSOR"],["CDISCPILOT01","AE","01-710-1006","AESEQ","12","AETRTEM","TREATMENT EMERGENT FLAG","Y","DERIVED","CLINICAL STUDY SPONSOR"],["CDISCPILOT01","AE","01-710-1006","AESEQ","2","AETRTEM","TREATMENT EMERGENT FLAG","Y","DERIVED","CLINICAL STUDY SPONSOR"],["CDISCPILOT01","AE","01-710-1006","AESEQ","3","AETRTEM","TREATMENT EMERGENT FLAG","Y","DERIVED","CLINICAL STUDY SPONSOR"],["CDISCPILOT01","AE","01-710-1006","AESEQ","4","AETRTEM","TREATMENT EMERGENT FLAG","Y","DERIVED","CLINICAL STUDY SPONSOR"],["CDISCPILOT01","AE","01-710-1006","AESEQ","5","AETRTEM","TREATMENT EMERGENT FLAG","Y","DERIVED","CLINICAL STUDY SPONSOR"],["CDISCPILOT01","AE","01-710-1006","AESEQ","6","AETRTEM","TREATMENT EMERGENT FLAG","Y","DERIVED","CLINICAL STUDY SPONSOR"],["CDISCPILOT01","AE","01-710-1006","AESEQ","7","AETRTEM","TREATMENT EMERGENT FLAG","Y","DERIVED","CLINICAL STUDY SPONSOR"],["CDISCPILOT01","AE","01-710-1006","AESEQ","8","AETRTEM","TREATMENT EMERGENT FLAG","Y","DERIVED","CLINICAL STUDY SPONSOR"],["CDISCPILOT01","AE","01-710-1006","AESEQ","9","AETRTEM","TREATMENT EMERGENT FLAG","Y","DERIVED","CLINICAL STUDY SPONSOR"],["CDISCPILOT01","AE","01-710-1021","AESEQ","1","AETRTEM","TREATMENT EMERGENT FLAG","Y","DERIVED","CLINICAL STUDY SPONSOR"],["CDISCPILOT01","AE","01-710-1021","AESEQ","2","AETRTEM","TREATMENT EMERGENT FLAG","Y","DERIVED","CLINICAL STUDY SPONSOR"],["CDISCPILOT01","AE","01-710-1021","AESEQ","3","AETRTEM","TREATMENT EMERGENT FLAG","Y","DERIVED","CLINICAL STUDY SPONSOR"],["CDISCPILOT01","AE","01-710-1027","AESEQ","1","AETRTEM","TREATMENT EMERGENT FLAG","Y","DERIVED","CLINICAL STUDY SPONSOR"],["CDISCPILOT01","AE","01-710-1027","AESEQ","2","AETRTEM","TREATMENT EMERGENT FLAG","Y","DERIVED","CLINICAL STUDY SPONSOR"],["CDISCPILOT01","AE","01-710-1027","AESEQ","3","AETRTEM","TREATMENT EMERGENT FLAG","Y","DERIVED","CLINICAL STUDY SPONSOR"],["CDISCPILOT01","AE","01-710-1027","AESEQ","4","AETRTEM","TREATMENT EMERGENT FLAG","Y","DERIVED","CLINICAL STUDY SPONSOR"],["CDISCPILOT01","AE","01-710-1045","AESEQ","1","AETRTEM","TREATMENT EMERGENT FLAG","Y","DERIVED","CLINICAL STUDY SPONSOR"],["CDISCPILOT01","AE","01-710-1045","AESEQ","10","AETRTEM","TREATMENT EMERGENT FLAG","Y","DERIVED","CLINICAL STUDY SPONSOR"],["CDISCPILOT01","AE","01-710-1045","AESEQ","11","AETRTEM","TREATMENT EMERGENT FLAG","Y","DERIVED","CLINICAL STUDY SPONSOR"],["CDISCPILOT01","AE","01-710-1045","AESEQ","12","AETRTEM","TREATMENT EMERGENT FLAG","Y","DERIVED","CLINICAL STUDY SPONSOR"],["CDISCPILOT01","AE","01-710-1045","AESEQ","13","AETRTEM","TREATMENT EMERGENT FLAG","Y","DERIVED","CLINICAL STUDY SPONSOR"],["CDISCPILOT01","AE","01-710-1045","AESEQ","2","AETRTEM","TREATMENT EMERGENT FLAG","Y","DERIVED","CLINICAL STUDY SPONSOR"],["CDISCPILOT01","AE","01-710-1045","AESEQ","3","AETRTEM","TREATMENT EMERGENT FLAG","Y","DERIVED","CLINICAL STUDY SPONSOR"],["CDISCPILOT01","AE","01-710-1045","AESEQ","4","AETRTEM","TREATMENT EMERGENT FLAG","Y","DERIVED","CLINICAL STUDY SPONSOR"],["CDISCPILOT01","AE","01-710-1045","AESEQ","5","AETRTEM","TREATMENT EMERGENT FLAG","Y","DERIVED","CLINICAL STUDY SPONSOR"],["CDISCPILOT01","AE","01-710-1045","AESEQ","6","AETRTEM","TREATMENT EMERGENT FLAG","Y","DERIVED","CLINICAL STUDY SPONSOR"],["CDISCPILOT01","AE","01-710-1045","AESEQ","7","AETRTEM","TREATMENT EMERGENT FLAG","Y","DERIVED","CLINICAL STUDY SPONSOR"],["CDISCPILOT01","AE","01-710-1045","AESEQ","8","AETRTEM","TREATMENT EMERGENT FLAG","Y","DERIVED","CLINICAL STUDY SPONSOR"],["CDISCPILOT01","AE","01-710-1045","AESEQ","9","AETRTEM","TREATMENT EMERGENT FLAG","Y","DERIVED","CLINICAL STUDY SPONSOR"],["CDISCPILOT01","AE","01-710-1053","AESEQ","1","AETRTEM","TREATMENT EMERGENT FLAG","Y","DERIVED","CLINICAL STUDY SPONSOR"],["CDISCPILOT01","AE","01-710-1053","AESEQ","2","AETRTEM","TREATMENT EMERGENT FLAG","Y","DERIVED","CLINICAL STUDY SPONSOR"],["CDISCPILOT01","AE","01-710-1053","AESEQ","3","AETRTEM","TREATMENT EMERGENT FLAG","Y","DERIVED","CLINICAL STUDY SPONSOR"],["CDISCPILOT01","AE","01-710-1053","AESEQ","4","AETRTEM","TREATMENT EMERGENT FLAG","Y","DERIVED","CLINICAL STUDY SPONSOR"],["CDISCPILOT01","AE","01-710-1060","AESEQ","1","AETRTEM","TREATMENT EMERGENT FLAG","Y","DERIVED","CLINICAL STUDY SPONSOR"],["CDISCPILOT01","AE","01-710-1060","AESEQ","2","AETRTEM","TREATMENT EMERGENT FLAG","Y","DERIVED","CLINICAL STUDY SPONSOR"],["CDISCPILOT01","AE","01-710-1060","AESEQ","3","AETRTEM","TREATMENT EMERGENT FLAG","Y","DERIVED","CLINICAL STUDY SPONSOR"],["CDISCPILOT01","AE","01-710-1060","AESEQ","4","AETRTEM","TREATMENT EMERGENT FLAG","Y","DERIVED","CLINICAL STUDY SPONSOR"],["CDISCPILOT01","AE","01-710-1060","AESEQ","5","AETRTEM","TREATMENT EMERGENT FLAG","Y","DERIVED","CLINICAL STUDY SPONSOR"],["CDISCPILOT01","AE","01-710-1060","AESEQ","6","AETRTEM","TREATMENT EMERGENT FLAG","Y","DERIVED","CLINICAL STUDY SPONSOR"],["CDISCPILOT01","AE","01-710-1060","AESEQ","7","AETRTEM","TREATMENT EMERGENT FLAG","Y","DERIVED","CLINICAL STUDY SPONSOR"],["CDISCPILOT01","AE","01-710-1060","AESEQ","8","AETRTEM","TREATMENT EMERGENT FLAG","Y","DERIVED","CLINICAL STUDY SPONSOR"],["CDISCPILOT01","AE","01-710-1070","AESEQ","1","AETRTEM","TREATMENT EMERGENT FLAG","Y","DERIVED","CLINICAL STUDY SPONSOR"],["CDISCPILOT01","AE","01-710-1070","AESEQ","2","AETRTEM","TREATMENT EMERGENT FLAG","Y","DERIVED","CLINICAL STUDY SPONSOR"],["CDISCPILOT01","AE","01-710-1070","AESEQ","3","AETRTEM","TREATMENT EMERGENT FLAG","Y","DERIVED","CLINICAL STUDY SPONSOR"],["CDISCPILOT01","AE","01-710-1070","AESEQ","4","AETRTEM","TREATMENT EMERGENT FLAG","Y","DERIVED","CLINICAL STUDY SPONSOR"],["CDISCPILOT01","AE","01-710-1070","AESEQ","5","AETRTEM","TREATMENT EMERGENT FLAG","Y","DERIVED","CLINICAL STUDY SPONSOR"],["CDISCPILOT01","AE","01-710-1070","AESEQ","6","AETRTEM","TREATMENT EMERGENT FLAG","Y","DERIVED","CLINICAL STUDY SPONSOR"],["CDISCPILOT01","AE","01-710-1077","AESEQ","1","AETRTEM","TREATMENT EMERGENT FLAG","Y","DERIVED","CLINICAL STUDY SPONSOR"],["CDISCPILOT01","AE","01-710-1077","AESEQ","2","AETRTEM","TREATMENT EMERGENT FLAG","Y","DERIVED","CLINICAL STUDY SPONSOR"],["CDISCPILOT01","AE","01-710-1077","AESEQ","3","AETRTEM","TREATMENT EMERGENT FLAG","Y","DERIVED","CLINICAL STUDY SPONSOR"],["CDISCPILOT01","AE","01-710-1077","AESEQ","4","AETRTEM","TREATMENT EMERGENT FLAG","N","DERIVED","CLINICAL STUDY SPONSOR"],["CDISCPILOT01","AE","01-710-1077","AESEQ","5","AETRTEM","TREATMENT EMERGENT FLAG","N","DERIVED","CLINICAL STUDY SPONSOR"],["CDISCPILOT01","AE","01-710-1083","AESEQ","1","AETRTEM","TREATMENT EMERGENT FLAG","Y","DERIVED","CLINICAL STUDY SPONSOR"],["CDISCPILOT01","AE","01-710-1137","AESEQ","1","AETRTEM","TREATMENT EMERGENT FLAG","Y","DERIVED","CLINICAL STUDY SPONSOR"],["CDISCPILOT01","AE","01-710-1137","AESEQ","2","AETRTEM","TREATMENT EMERGENT FLAG","Y","DERIVED","CLINICAL STUDY SPONSOR"],["CDISCPILOT01","AE","01-710-1137","AESEQ","3","AETRTEM","TREATMENT EMERGENT FLAG","Y","DERIVED","CLINICAL STUDY SPONSOR"],["CDISCPILOT01","AE","01-710-1137","AESEQ","4","AETRTEM","TREATMENT EMERGENT FLAG","Y","DERIVED","CLINICAL STUDY SPONSOR"],["CDISCPILOT01","AE","01-710-1142","AESEQ","1","AETRTEM","TREATMENT EMERGENT FLAG","Y","DERIVED","CLINICAL STUDY SPONSOR"],["CDISCPILOT01","AE","01-710-1142","AESEQ","2","AETRTEM","TREATMENT EMERGENT FLAG","Y","DERIVED","CLINICAL STUDY SPONSOR"],["CDISCPILOT01","AE","01-710-1142","AESEQ","3","AETRTEM","TREATMENT EMERGENT FLAG","Y","DERIVED","CLINICAL STUDY SPONSOR"],["CDISCPILOT01","AE","01-710-1142","AESEQ","4","AETRTEM","TREATMENT EMERGENT FLAG","Y","DERIVED","CLINICAL STUDY SPONSOR"],["CDISCPILOT01","AE","01-710-1142","AESEQ","5","AETRTEM","TREATMENT EMERGENT FLAG","Y","DERIVED","CLINICAL STUDY SPONSOR"],["CDISCPILOT01","AE","01-710-1154","AESEQ","1","AETRTEM","TREATMENT EMERGENT FLAG","Y","DERIVED","CLINICAL STUDY SPONSOR"],["CDISCPILOT01","AE","01-710-1154","AESEQ","2","AETRTEM","TREATMENT EMERGENT FLAG","Y","DERIVED","CLINICAL STUDY SPONSOR"],["CDISCPILOT01","AE","01-710-1166","AESEQ","1","AETRTEM","TREATMENT EMERGENT FLAG","Y","DERIVED","CLINICAL STUDY SPONSOR"],["CDISCPILOT01","AE","01-710-1166","AESEQ","2","AETRTEM","TREATMENT EMERGENT FLAG","Y","DERIVED","CLINICAL STUDY SPONSOR"],["CDISCPILOT01","AE","01-710-1166","AESEQ","3","AETRTEM","TREATMENT EMERGENT FLAG","Y","DERIVED","CLINICAL STUDY SPONSOR"],["CDISCPILOT01","AE","01-710-1166","AESEQ","4","AETRTEM","TREATMENT EMERGENT FLAG","Y","DERIVED","CLINICAL STUDY SPONSOR"],["CDISCPILOT01","AE","01-710-1166","AESEQ","5","AETRTEM","TREATMENT EMERGENT FLAG","Y","DERIVED","CLINICAL STUDY SPONSOR"],["CDISCPILOT01","AE","01-710-1183","AESEQ","1","AETRTEM","TREATMENT EMERGENT FLAG","Y","DERIVED","CLINICAL STUDY SPONSOR"],["CDISCPILOT01","AE","01-710-1183","AESEQ","2","AETRTEM","TREATMENT EMERGENT FLAG","Y","DERIVED","CLINICAL STUDY SPONSOR"],["CDISCPILOT01","AE","01-710-1187","AESEQ","1","AETRTEM","TREATMENT EMERGENT FLAG","Y","DERIVED","CLINICAL STUDY SPONSOR"],["CDISCPILOT01","AE","01-710-1235","AESEQ","1","AETRTEM","TREATMENT EMERGENT FLAG","Y","DERIVED","CLINICAL STUDY SPONSOR"],["CDISCPILOT01","AE","01-710-1235","AESEQ","2","AETRTEM","TREATMENT EMERGENT FLAG","Y","DERIVED","CLINICAL STUDY SPONSOR"],["CDISCPILOT01","AE","01-710-1235","AESEQ","3","AETRTEM","TREATMENT EMERGENT FLAG","Y","DERIVED","CLINICAL STUDY SPONSOR"],["CDISCPILOT01","AE","01-710-1249","AESEQ","1","AETRTEM","TREATMENT EMERGENT FLAG","Y","DERIVED","CLINICAL STUDY SPONSOR"],["CDISCPILOT01","AE","01-710-1249","AESEQ","2","AETRTEM","TREATMENT EMERGENT FLAG","Y","DERIVED","CLINICAL STUDY SPONSOR"],["CDISCPILOT01","AE","01-710-1249","AESEQ","3","AETRTEM","TREATMENT EMERGENT FLAG","Y","DERIVED","CLINICAL STUDY SPONSOR"],["CDISCPILOT01","AE","01-710-1249","AESEQ","4","AETRTEM","TREATMENT EMERGENT FLAG","Y","DERIVED","CLINICAL STUDY SPONSOR"],["CDISCPILOT01","AE","01-710-1264","AESEQ","1","AETRTEM","TREATMENT EMERGENT FLAG","Y","DERIVED","CLINICAL STUDY SPONSOR"],["CDISCPILOT01","AE","01-710-1264","AESEQ","2","AETRTEM","TREATMENT EMERGENT FLAG","Y","DERIVED","CLINICAL STUDY SPONSOR"],["CDISCPILOT01","AE","01-710-1264","AESEQ","3","AETRTEM","TREATMENT EMERGENT FLAG","Y","DERIVED","CLINICAL STUDY SPONSOR"],["CDISCPILOT01","AE","01-710-1264","AESEQ","4","AETRTEM","TREATMENT EMERGENT FLAG","Y","DERIVED","CLINICAL STUDY SPONSOR"],["CDISCPILOT01","AE","01-710-1264","AESEQ","5","AETRTEM","TREATMENT EMERGENT FLAG","Y","DERIVED","CLINICAL STUDY SPONSOR"],["CDISCPILOT01","AE","01-710-1264","AESEQ","6","AETRTEM","TREATMENT EMERGENT FLAG","Y","DERIVED","CLINICAL STUDY SPONSOR"],["CDISCPILOT01","AE","01-710-1264","AESEQ","7","AETRTEM","TREATMENT EMERGENT FLAG","Y","DERIVED","CLINICAL STUDY SPONSOR"],["CDISCPILOT01","AE","01-710-1264","AESEQ","8","AETRTEM","TREATMENT EMERGENT FLAG","Y","DERIVED","CLINICAL STUDY SPONSOR"],["CDISCPILOT01","AE","01-710-1264","AESEQ","9","AETRTEM","TREATMENT EMERGENT FLAG","Y","DERIVED","CLINICAL STUDY SPONSOR"],["CDISCPILOT01","AE","01-710-1270","AESEQ","1","AETRTEM","TREATMENT EMERGENT FLAG","Y","DERIVED","CLINICAL STUDY SPONSOR"],["CDISCPILOT01","AE","01-710-1270","AESEQ","2","AETRTEM","TREATMENT EMERGENT FLAG","Y","DERIVED","CLINICAL STUDY SPONSOR"],["CDISCPILOT01","AE","01-710-1271","AESEQ","1","AETRTEM","TREATMENT EMERGENT FLAG","Y","DERIVED","CLINICAL STUDY SPONSOR"],["CDISCPILOT01","AE","01-710-1271","AESEQ","2","AETRTEM","TREATMENT EMERGENT FLAG","Y","DERIVED","CLINICAL STUDY SPONSOR"],["CDISCPILOT01","AE","01-710-1271","AESEQ","3","AETRTEM","TREATMENT EMERGENT FLAG","Y","DERIVED","CLINICAL STUDY SPONSOR"],["CDISCPILOT01","AE","01-710-1271","AESEQ","4","AETRTEM","TREATMENT EMERGENT FLAG","Y","DERIVED","CLINICAL STUDY SPONSOR"],["CDISCPILOT01","AE","01-710-1271","AESEQ","5","AETRTEM","TREATMENT EMERGENT FLAG","Y","DERIVED","CLINICAL STUDY SPONSOR"],["CDISCPILOT01","AE","01-710-1278","AESEQ","1","AETRTEM","TREATMENT EMERGENT FLAG","Y","DERIVED","CLINICAL STUDY SPONSOR"],["CDISCPILOT01","AE","01-710-1278","AESEQ","2","AETRTEM","TREATMENT EMERGENT FLAG","Y","DERIVED","CLINICAL STUDY SPONSOR"],["CDISCPILOT01","AE","01-710-1278","AESEQ","3","AETRTEM","TREATMENT EMERGENT FLAG","Y","DERIVED","CLINICAL STUDY SPONSOR"],["CDISCPILOT01","AE","01-710-1278","AESEQ","4","AETRTEM","TREATMENT EMERGENT FLAG","Y","DERIVED","CLINICAL STUDY SPONSOR"],["CDISCPILOT01","AE","01-710-1278","AESEQ","5","AETRTEM","TREATMENT EMERGENT FLAG","Y","DERIVED","CLINICAL STUDY SPONSOR"],["CDISCPILOT01","AE","01-710-1278","AESEQ","6","AETRTEM","TREATMENT EMERGENT FLAG","Y","DERIVED","CLINICAL STUDY SPONSOR"],["CDISCPILOT01","AE","01-710-1278","AESEQ","7","AETRTEM","TREATMENT EMERGENT FLAG","Y","DERIVED","CLINICAL STUDY SPONSOR"],["CDISCPILOT01","AE","01-710-1300","AESEQ","1","AETRTEM","TREATMENT EMERGENT FLAG","Y","DERIVED","CLINICAL STUDY SPONSOR"],["CDISCPILOT01","AE","01-710-1300","AESEQ","2","AETRTEM","TREATMENT EMERGENT FLAG","Y","DERIVED","CLINICAL STUDY SPONSOR"],["CDISCPILOT01","AE","01-710-1300","AESEQ","3","AETRTEM","TREATMENT EMERGENT FLAG","Y","DERIVED","CLINICAL STUDY SPONSOR"],["CDISCPILOT01","AE","01-710-1300","AESEQ","4","AETRTEM","TREATMENT EMERGENT FLAG","Y","DERIVED","CLINICAL STUDY SPONSOR"],["CDISCPILOT01","AE","01-710-1314","AESEQ","1","AETRTEM","TREATMENT EMERGENT FLAG","Y","DERIVED","CLINICAL STUDY SPONSOR"],["CDISCPILOT01","AE","01-710-1314","AESEQ","2","AETRTEM","TREATMENT EMERGENT FLAG","Y","DERIVED","CLINICAL STUDY SPONSOR"],["CDISCPILOT01","AE","01-710-1315","AESEQ","1","AETRTEM","TREATMENT EMERGENT FLAG","N","DERIVED","CLINICAL STUDY SPONSOR"],["CDISCPILOT01","AE","01-710-1315","AESEQ","2","AETRTEM","TREATMENT EMERGENT FLAG","Y","DERIVED","CLINICAL STUDY SPONSOR"],["CDISCPILOT01","AE","01-710-1315","AESEQ","3","AETRTEM","TREATMENT EMERGENT FLAG","Y","DERIVED","CLINICAL STUDY SPONSOR"],["CDISCPILOT01","AE","01-710-1315","AESEQ","4","AETRTEM","TREATMENT EMERGENT FLAG","Y","DERIVED","CLINICAL STUDY SPONSOR"],["CDISCPILOT01","AE","01-710-1315","AESEQ","5","AETRTEM","TREATMENT EMERGENT FLAG","Y","DERIVED","CLINICAL STUDY SPONSOR"],["CDISCPILOT01","AE","01-710-1315","AESEQ","6","AETRTEM","TREATMENT EMERGENT FLAG","Y","DERIVED","CLINICAL STUDY SPONSOR"],["CDISCPILOT01","AE","01-710-1315","AESEQ","7","AETRTEM","TREATMENT EMERGENT FLAG","Y","DERIVED","CLINICAL STUDY SPONSOR"],["CDISCPILOT01","AE","01-710-1354","AESEQ","1","AETRTEM","TREATMENT EMERGENT FLAG","Y","DERIVED","CLINICAL STUDY SPONSOR"],["CDISCPILOT01","AE","01-710-1354","AESEQ","2","AETRTEM","TREATMENT EMERGENT FLAG","Y","DERIVED","CLINICAL STUDY SPONSOR"],["CDISCPILOT01","AE","01-710-1358","AESEQ","1","AETRTEM","TREATMENT EMERGENT FLAG","Y","DERIVED","CLINICAL STUDY SPONSOR"],["CDISCPILOT01","AE","01-710-1358","AESEQ","2","AETRTEM","TREATMENT EMERGENT FLAG","Y","DERIVED","CLINICAL STUDY SPONSOR"],["CDISCPILOT01","AE","01-710-1358","AESEQ","3","AETRTEM","TREATMENT EMERGENT FLAG","Y","DERIVED","CLINICAL STUDY SPONSOR"],["CDISCPILOT01","AE","01-710-1368","AESEQ","1","AETRTEM","TREATMENT EMERGENT FLAG","Y","DERIVED","CLINICAL STUDY SPONSOR"],["CDISCPILOT01","AE","01-710-1368","AESEQ","2","AETRTEM","TREATMENT EMERGENT FLAG","Y","DERIVED","CLINICAL STUDY SPONSOR"],["CDISCPILOT01","AE","01-710-1368","AESEQ","3","AETRTEM","TREATMENT EMERGENT FLAG","Y","DERIVED","CLINICAL STUDY SPONSOR"],["CDISCPILOT01","AE","01-710-1368","AESEQ","4","AETRTEM","TREATMENT EMERGENT FLAG","Y","DERIVED","CLINICAL STUDY SPONSOR"],["CDISCPILOT01","AE","01-710-1385","AESEQ","1","AETRTEM","TREATMENT EMERGENT FLAG","Y","DERIVED","CLINICAL STUDY SPONSOR"],["CDISCPILOT01","AE","01-710-1385","AESEQ","2","AETRTEM","TREATMENT EMERGENT FLAG","Y","DERIVED","CLINICAL STUDY SPONSOR"],["CDISCPILOT01","AE","01-710-1385","AESEQ","3","AETRTEM","TREATMENT EMERGENT FLAG","Y","DERIVED","CLINICAL STUDY SPONSOR"],["CDISCPILOT01","AE","01-710-1385","AESEQ","4","AETRTEM","TREATMENT EMERGENT FLAG","Y","DERIVED","CLINICAL STUDY SPONSOR"],["CDISCPILOT01","AE","01-710-1385","AESEQ","5","AETRTEM","TREATMENT EMERGENT FLAG","Y","DERIVED","CLINICAL STUDY SPONSOR"],["CDISCPILOT01","AE","01-710-1385","AESEQ","6","AETRTEM","TREATMENT EMERGENT FLAG","Y","DERIVED","CLINICAL STUDY SPONSOR"],["CDISCPILOT01","AE","01-710-1385","AESEQ","7","AETRTEM","TREATMENT EMERGENT FLAG","Y","DERIVED","CLINICAL STUDY SPONSOR"],["CDISCPILOT01","AE","01-710-1385","AESEQ","8","AETRTEM","TREATMENT EMERGENT FLAG","Y","DERIVED","CLINICAL STUDY SPONSOR"],["CDISCPILOT01","AE","01-710-1408","AESEQ","1","AETRTEM","TREATMENT EMERGENT FLAG","Y","DERIVED","CLINICAL STUDY SPONSOR"],["CDISCPILOT01","AE","01-710-1408","AESEQ","2","AETRTEM","TREATMENT EMERGENT FLAG","Y","DERIVED","CLINICAL STUDY SPONSOR"],["CDISCPILOT01","AE","01-710-1408","AESEQ","3","AETRTEM","TREATMENT EMERGENT FLAG","Y","DERIVED","CLINICAL STUDY SPONSOR"],["CDISCPILOT01","AE","01-710-1408","AESEQ","4","AETRTEM","TREATMENT EMERGENT FLAG","Y","DERIVED","CLINICAL STUDY SPONSOR"],["CDISCPILOT01","AE","01-711-1012","AESEQ","1","AETRTEM","TREATMENT EMERGENT FLAG","Y","DERIVED","CLINICAL STUDY SPONSOR"],["CDISCPILOT01","AE","01-711-1012","AESEQ","2","AETRTEM","TREATMENT EMERGENT FLAG","Y","DERIVED","CLINICAL STUDY SPONSOR"],["CDISCPILOT01","AE","01-711-1012","AESEQ","3","AETRTEM","TREATMENT EMERGENT FLAG","Y","DERIVED","CLINICAL STUDY SPONSOR"],["CDISCPILOT01","AE","01-711-1012","AESEQ","4","AETRTEM","TREATMENT EMERGENT FLAG","Y","DERIVED","CLINICAL STUDY SPONSOR"],["CDISCPILOT01","AE","01-711-1012","AESEQ","5","AETRTEM","TREATMENT EMERGENT FLAG","Y","DERIVED","CLINICAL STUDY SPONSOR"],["CDISCPILOT01","AE","01-711-1012","AESEQ","6","AETRTEM","TREATMENT EMERGENT FLAG","Y","DERIVED","CLINICAL STUDY SPONSOR"],["CDISCPILOT01","AE","01-711-1012","AESEQ","7","AETRTEM","TREATMENT EMERGENT FLAG","Y","DERIVED","CLINICAL STUDY SPONSOR"],["CDISCPILOT01","AE","01-711-1036","AESEQ","1","AETRTEM","TREATMENT EMERGENT FLAG","Y","DERIVED","CLINICAL STUDY SPONSOR"],["CDISCPILOT01","AE","01-711-1036","AESEQ","2","AETRTEM","TREATMENT EMERGENT FLAG","Y","DERIVED","CLINICAL STUDY SPONSOR"],["CDISCPILOT01","AE","01-711-1036","AESEQ","3","AETRTEM","TREATMENT EMERGENT FLAG","Y","DERIVED","CLINICAL STUDY SPONSOR"],["CDISCPILOT01","AE","01-711-1036","AESEQ","4","AETRTEM","TREATMENT EMERGENT FLAG","Y","DERIVED","CLINICAL STUDY SPONSOR"],["CDISCPILOT01","AE","01-711-1143","AESEQ","1","AETRTEM","TREATMENT EMERGENT FLAG","N","DERIVED","CLINICAL STUDY SPONSOR"],["CDISCPILOT01","AE","01-711-1143","AESEQ","10","AETRTEM","TREATMENT EMERGENT FLAG","Y","DERIVED","CLINICAL STUDY SPONSOR"],["CDISCPILOT01","AE","01-711-1143","AESEQ","11","AETRTEM","TREATMENT EMERGENT FLAG","Y","DERIVED","CLINICAL STUDY SPONSOR"],["CDISCPILOT01","AE","01-711-1143","AESEQ","12","AETRTEM","TREATMENT EMERGENT FLAG","Y","DERIVED","CLINICAL STUDY SPONSOR"],["CDISCPILOT01","AE","01-711-1143","AESEQ","13","AETRTEM","TREATMENT EMERGENT FLAG","Y","DERIVED","CLINICAL STUDY SPONSOR"],["CDISCPILOT01","AE","01-711-1143","AESEQ","14","AETRTEM","TREATMENT EMERGENT FLAG","Y","DERIVED","CLINICAL STUDY SPONSOR"],["CDISCPILOT01","AE","01-711-1143","AESEQ","2","AETRTEM","TREATMENT EMERGENT FLAG","Y","DERIVED","CLINICAL STUDY SPONSOR"],["CDISCPILOT01","AE","01-711-1143","AESEQ","3","AETRTEM","TREATMENT EMERGENT FLAG","Y","DERIVED","CLINICAL STUDY SPONSOR"],["CDISCPILOT01","AE","01-711-1143","AESEQ","4","AETRTEM","TREATMENT EMERGENT FLAG","Y","DERIVED","CLINICAL STUDY SPONSOR"],["CDISCPILOT01","AE","01-711-1143","AESEQ","5","AETRTEM","TREATMENT EMERGENT FLAG","Y","DERIVED","CLINICAL STUDY SPONSOR"],["CDISCPILOT01","AE","01-711-1143","AESEQ","6","AETRTEM","TREATMENT EMERGENT FLAG","Y","DERIVED","CLINICAL STUDY SPONSOR"],["CDISCPILOT01","AE","01-711-1143","AESEQ","7","AETRTEM","TREATMENT EMERGENT FLAG","Y","DERIVED","CLINICAL STUDY SPONSOR"],["CDISCPILOT01","AE","01-711-1143","AESEQ","8","AETRTEM","TREATMENT EMERGENT FLAG","Y","DERIVED","CLINICAL STUDY SPONSOR"],["CDISCPILOT01","AE","01-711-1143","AESEQ","9","AETRTEM","TREATMENT EMERGENT FLAG","Y","DERIVED","CLINICAL STUDY SPONSOR"],["CDISCPILOT01","AE","01-711-1433","AESEQ","1","AETRTEM","TREATMENT EMERGENT FLAG","N","DERIVED","CLINICAL STUDY SPONSOR"],["CDISCPILOT01","AE","01-711-1433","AESEQ","2","AETRTEM","TREATMENT EMERGENT FLAG","N","DERIVED","CLINICAL STUDY SPONSOR"],["CDISCPILOT01","AE","01-711-1433","AESEQ","3","AETRTEM","TREATMENT EMERGENT FLAG","Y","DERIVED","CLINICAL STUDY SPONSOR"],["CDISCPILOT01","AE","01-713-1043","AESEQ","1","AETRTEM","TREATMENT EMERGENT FLAG","Y","DERIVED","CLINICAL STUDY SPONSOR"],["CDISCPILOT01","AE","01-713-1043","AESEQ","2","AETRTEM","TREATMENT EMERGENT FLAG","Y","DERIVED","CLINICAL STUDY SPONSOR"],["CDISCPILOT01","AE","01-713-1043","AESEQ","3","AETRTEM","TREATMENT EMERGENT FLAG","Y","DERIVED","CLINICAL STUDY SPONSOR"],["CDISCPILOT01","AE","01-713-1043","AESEQ","4","AETRTEM","TREATMENT EMERGENT FLAG","Y","DERIVED","CLINICAL STUDY SPONSOR"],["CDISCPILOT01","AE","01-713-1043","AESEQ","5","AETRTEM","TREATMENT EMERGENT FLAG","Y","DERIVED","CLINICAL STUDY SPONSOR"],["CDISCPILOT01","AE","01-713-1043","AESEQ","6","AETRTEM","TREATMENT EMERGENT FLAG","Y","DERIVED","CLINICAL STUDY SPONSOR"],["CDISCPILOT01","AE","01-713-1043","AESEQ","7","AETRTEM","TREATMENT EMERGENT FLAG","Y","DERIVED","CLINICAL STUDY SPONSOR"],["CDISCPILOT01","AE","01-713-1073","AESEQ","1","AETRTEM","TREATMENT EMERGENT FLAG","Y","DERIVED","CLINICAL STUDY SPONSOR"],["CDISCPILOT01","AE","01-713-1141","AESEQ","1","AETRTEM","TREATMENT EMERGENT FLAG","Y","DERIVED","CLINICAL STUDY SPONSOR"],["CDISCPILOT01","AE","01-713-1141","AESEQ","2","AETRTEM","TREATMENT EMERGENT FLAG","Y","DERIVED","CLINICAL STUDY SPONSOR"],["CDISCPILOT01","AE","01-713-1141","AESEQ","3","AETRTEM","TREATMENT EMERGENT FLAG","Y","DERIVED","CLINICAL STUDY SPONSOR"],["CDISCPILOT01","AE","01-713-1141","AESEQ","4","AETRTEM","TREATMENT EMERGENT FLAG","Y","DERIVED","CLINICAL STUDY SPONSOR"],["CDISCPILOT01","AE","01-713-1179","AESEQ","1","AETRTEM","TREATMENT EMERGENT FLAG","Y","DERIVED","CLINICAL STUDY SPONSOR"],["CDISCPILOT01","AE","01-713-1179","AESEQ","10","AETRTEM","TREATMENT EMERGENT FLAG","Y","DERIVED","CLINICAL STUDY SPONSOR"],["CDISCPILOT01","AE","01-713-1179","AESEQ","11","AETRTEM","TREATMENT EMERGENT FLAG","Y","DERIVED","CLINICAL STUDY SPONSOR"],["CDISCPILOT01","AE","01-713-1179","AESEQ","12","AETRTEM","TREATMENT EMERGENT FLAG","Y","DERIVED","CLINICAL STUDY SPONSOR"],["CDISCPILOT01","AE","01-713-1179","AESEQ","13","AETRTEM","TREATMENT EMERGENT FLAG","Y","DERIVED","CLINICAL STUDY SPONSOR"],["CDISCPILOT01","AE","01-713-1179","AESEQ","14","AETRTEM","TREATMENT EMERGENT FLAG","Y","DERIVED","CLINICAL STUDY SPONSOR"],["CDISCPILOT01","AE","01-713-1179","AESEQ","15","AETRTEM","TREATMENT EMERGENT FLAG","Y","DERIVED","CLINICAL STUDY SPONSOR"],["CDISCPILOT01","AE","01-713-1179","AESEQ","2","AETRTEM","TREATMENT EMERGENT FLAG","Y","DERIVED","CLINICAL STUDY SPONSOR"],["CDISCPILOT01","AE","01-713-1179","AESEQ","3","AETRTEM","TREATMENT EMERGENT FLAG","Y","DERIVED","CLINICAL STUDY SPONSOR"],["CDISCPILOT01","AE","01-713-1179","AESEQ","4","AETRTEM","TREATMENT EMERGENT FLAG","Y","DERIVED","CLINICAL STUDY SPONSOR"],["CDISCPILOT01","AE","01-713-1179","AESEQ","5","AETRTEM","TREATMENT EMERGENT FLAG","Y","DERIVED","CLINICAL STUDY SPONSOR"],["CDISCPILOT01","AE","01-713-1179","AESEQ","6","AETRTEM","TREATMENT EMERGENT FLAG","Y","DERIVED","CLINICAL STUDY SPONSOR"],["CDISCPILOT01","AE","01-713-1179","AESEQ","7","AETRTEM","TREATMENT EMERGENT FLAG","Y","DERIVED","CLINICAL STUDY SPONSOR"],["CDISCPILOT01","AE","01-713-1179","AESEQ","8","AETRTEM","TREATMENT EMERGENT FLAG","Y","DERIVED","CLINICAL STUDY SPONSOR"],["CDISCPILOT01","AE","01-713-1179","AESEQ","9","AETRTEM","TREATMENT EMERGENT FLAG","Y","DERIVED","CLINICAL STUDY SPONSOR"],["CDISCPILOT01","AE","01-713-1209","AESEQ","1","AETRTEM","TREATMENT EMERGENT FLAG","Y","DERIVED","CLINICAL STUDY SPONSOR"],["CDISCPILOT01","AE","01-713-1209","AESEQ","2","AETRTEM","TREATMENT EMERGENT FLAG","Y","DERIVED","CLINICAL STUDY SPONSOR"],["CDISCPILOT01","AE","01-713-1209","AESEQ","3","AETRTEM","TREATMENT EMERGENT FLAG","Y","DERIVED","CLINICAL STUDY SPONSOR"],["CDISCPILOT01","AE","01-713-1209","AESEQ","4","AETRTEM","TREATMENT EMERGENT FLAG","Y","DERIVED","CLINICAL STUDY SPONSOR"],["CDISCPILOT01","AE","01-713-1256","AESEQ","1","AETRTEM","TREATMENT EMERGENT FLAG","Y","DERIVED","CLINICAL STUDY SPONSOR"],["CDISCPILOT01","AE","01-713-1256","AESEQ","2","AETRTEM","TREATMENT EMERGENT FLAG","Y","DERIVED","CLINICAL STUDY SPONSOR"],["CDISCPILOT01","AE","01-713-1269","AESEQ","1","AETRTEM","TREATMENT EMERGENT FLAG","Y","DERIVED","CLINICAL STUDY SPONSOR"],["CDISCPILOT01","AE","01-713-1269","AESEQ","2","AETRTEM","TREATMENT EMERGENT FLAG","Y","DERIVED","CLINICAL STUDY SPONSOR"],["CDISCPILOT01","AE","01-713-1269","AESEQ","3","AETRTEM","TREATMENT EMERGENT FLAG","Y","DERIVED","CLINICAL STUDY SPONSOR"],["CDISCPILOT01","AE","01-713-1269","AESEQ","4","AETRTEM","TREATMENT EMERGENT FLAG","Y","DERIVED","CLINICAL STUDY SPONSOR"],["CDISCPILOT01","AE","01-713-1269","AESEQ","5","AETRTEM","TREATMENT EMERGENT FLAG","Y","DERIVED","CLINICAL STUDY SPONSOR"],["CDISCPILOT01","AE","01-713-1269","AESEQ","6","AETRTEM","TREATMENT EMERGENT FLAG","Y","DERIVED","CLINICAL STUDY SPONSOR"],["CDISCPILOT01","AE","01-713-1448","AESEQ","1","AETRTEM","TREATMENT EMERGENT FLAG","Y","DERIVED","CLINICAL STUDY SPONSOR"],["CDISCPILOT01","AE","01-713-1448","AESEQ","2","AETRTEM","TREATMENT EMERGENT FLAG","Y","DERIVED","CLINICAL STUDY SPONSOR"],["CDISCPILOT01","AE","01-713-1448","AESEQ","3","AETRTEM","TREATMENT EMERGENT FLAG","Y","DERIVED","CLINICAL STUDY SPONSOR"],["CDISCPILOT01","AE","01-713-1448","AESEQ","4","AETRTEM","TREATMENT EMERGENT FLAG","Y","DERIVED","CLINICAL STUDY SPONSOR"],["CDISCPILOT01","AE","01-714-1035","AESEQ","1","AETRTEM","TREATMENT EMERGENT FLAG","Y","DERIVED","CLINICAL STUDY SPONSOR"],["CDISCPILOT01","AE","01-714-1035","AESEQ","2","AETRTEM","TREATMENT EMERGENT FLAG","Y","DERIVED","CLINICAL STUDY SPONSOR"],["CDISCPILOT01","AE","01-714-1035","AESEQ","3","AETRTEM","TREATMENT EMERGENT FLAG","Y","DERIVED","CLINICAL STUDY SPONSOR"],["CDISCPILOT01","AE","01-714-1035","AESEQ","4","AETRTEM","TREATMENT EMERGENT FLAG","Y","DERIVED","CLINICAL STUDY SPONSOR"],["CDISCPILOT01","AE","01-714-1035","AESEQ","5","AETRTEM","TREATMENT EMERGENT FLAG","Y","DERIVED","CLINICAL STUDY SPONSOR"],["CDISCPILOT01","AE","01-714-1035","AESEQ","6","AETRTEM","TREATMENT EMERGENT FLAG","Y","DERIVED","CLINICAL STUDY SPONSOR"],["CDISCPILOT01","AE","01-714-1035","AESEQ","7","AETRTEM","TREATMENT EMERGENT FLAG","Y","DERIVED","CLINICAL STUDY SPONSOR"],["CDISCPILOT01","AE","01-714-1068","AESEQ","1","AETRTEM","TREATMENT EMERGENT FLAG","Y","DERIVED","CLINICAL STUDY SPONSOR"],["CDISCPILOT01","AE","01-714-1068","AESEQ","2","AETRTEM","TREATMENT EMERGENT FLAG","Y","DERIVED","CLINICAL STUDY SPONSOR"],["CDISCPILOT01","AE","01-714-1068","AESEQ","3","AETRTEM","TREATMENT EMERGENT FLAG","Y","DERIVED","CLINICAL STUDY SPONSOR"],["CDISCPILOT01","AE","01-714-1068","AESEQ","4","AETRTEM","TREATMENT EMERGENT FLAG","Y","DERIVED","CLINICAL STUDY SPONSOR"],["CDISCPILOT01","AE","01-714-1068","AESEQ","5","AETRTEM","TREATMENT EMERGENT FLAG","Y","DERIVED","CLINICAL STUDY SPONSOR"],["CDISCPILOT01","AE","01-714-1068","AESEQ","6","AETRTEM","TREATMENT EMERGENT FLAG","Y","DERIVED","CLINICAL STUDY SPONSOR"],["CDISCPILOT01","AE","01-714-1195","AESEQ","1","AETRTEM","TREATMENT EMERGENT FLAG","Y","DERIVED","CLINICAL STUDY SPONSOR"],["CDISCPILOT01","AE","01-714-1195","AESEQ","2","AETRTEM","TREATMENT EMERGENT FLAG","Y","DERIVED","CLINICAL STUDY SPONSOR"],["CDISCPILOT01","AE","01-714-1195","AESEQ","3","AETRTEM","TREATMENT EMERGENT FLAG","Y","DERIVED","CLINICAL STUDY SPONSOR"],["CDISCPILOT01","AE","01-714-1195","AESEQ","4","AETRTEM","TREATMENT EMERGENT FLAG","Y","DERIVED","CLINICAL STUDY SPONSOR"],["CDISCPILOT01","AE","01-714-1195","AESEQ","5","AETRTEM","TREATMENT EMERGENT FLAG","Y","DERIVED","CLINICAL STUDY SPONSOR"],["CDISCPILOT01","AE","01-714-1195","AESEQ","6","AETRTEM","TREATMENT EMERGENT FLAG","Y","DERIVED","CLINICAL STUDY SPONSOR"],["CDISCPILOT01","AE","01-714-1195","AESEQ","7","AETRTEM","TREATMENT EMERGENT FLAG","Y","DERIVED","CLINICAL STUDY SPONSOR"],["CDISCPILOT01","AE","01-714-1195","AESEQ","8","AETRTEM","TREATMENT EMERGENT FLAG","Y","DERIVED","CLINICAL STUDY SPONSOR"],["CDISCPILOT01","AE","01-714-1195","AESEQ","9","AETRTEM","TREATMENT EMERGENT FLAG","Y","DERIVED","CLINICAL STUDY SPONSOR"],["CDISCPILOT01","AE","01-714-1288","AESEQ","1","AETRTEM","TREATMENT EMERGENT FLAG","Y","DERIVED","CLINICAL STUDY SPONSOR"],["CDISCPILOT01","AE","01-714-1288","AESEQ","2","AETRTEM","TREATMENT EMERGENT FLAG","Y","DERIVED","CLINICAL STUDY SPONSOR"],["CDISCPILOT01","AE","01-714-1288","AESEQ","3","AETRTEM","TREATMENT EMERGENT FLAG","Y","DERIVED","CLINICAL STUDY SPONSOR"],["CDISCPILOT01","AE","01-714-1288","AESEQ","4","AETRTEM","TREATMENT EMERGENT FLAG","Y","DERIVED","CLINICAL STUDY SPONSOR"],["CDISCPILOT01","AE","01-714-1288","AESEQ","5","AETRTEM","TREATMENT EMERGENT FLAG","Y","DERIVED","CLINICAL STUDY SPONSOR"],["CDISCPILOT01","AE","01-714-1288","AESEQ","6","AETRTEM","TREATMENT EMERGENT FLAG","Y","DERIVED","CLINICAL STUDY SPONSOR"],["CDISCPILOT01","AE","01-714-1288","AESEQ","7","AETRTEM","TREATMENT EMERGENT FLAG","Y","DERIVED","CLINICAL STUDY SPONSOR"],["CDISCPILOT01","AE","01-714-1288","AESEQ","8","AETRTEM","TREATMENT EMERGENT FLAG","Y","DERIVED","CLINICAL STUDY SPONSOR"],["CDISCPILOT01","AE","01-714-1288","AESEQ","9","AETRTEM","TREATMENT EMERGENT FLAG","Y","DERIVED","CLINICAL STUDY SPONSOR"],["CDISCPILOT01","AE","01-714-1375","AESEQ","1","AETRTEM","TREATMENT EMERGENT FLAG","Y","DERIVED","CLINICAL STUDY SPONSOR"],["CDISCPILOT01","AE","01-714-1375","AESEQ","2","AETRTEM","TREATMENT EMERGENT FLAG","Y","DERIVED","CLINICAL STUDY SPONSOR"],["CDISCPILOT01","AE","01-714-1375","AESEQ","3","AETRTEM","TREATMENT EMERGENT FLAG","Y","DERIVED","CLINICAL STUDY SPONSOR"],["CDISCPILOT01","AE","01-714-1375","AESEQ","4","AETRTEM","TREATMENT EMERGENT FLAG","Y","DERIVED","CLINICAL STUDY SPONSOR"],["CDISCPILOT01","AE","01-714-1375","AESEQ","5","AETRTEM","TREATMENT EMERGENT FLAG","Y","DERIVED","CLINICAL STUDY SPONSOR"],["CDISCPILOT01","AE","01-714-1375","AESEQ","6","AETRTEM","TREATMENT EMERGENT FLAG","Y","DERIVED","CLINICAL STUDY SPONSOR"],["CDISCPILOT01","AE","01-714-1375","AESEQ","7","AETRTEM","TREATMENT EMERGENT FLAG","Y","DERIVED","CLINICAL STUDY SPONSOR"],["CDISCPILOT01","AE","01-714-1375","AESEQ","8","AETRTEM","TREATMENT EMERGENT FLAG","Y","DERIVED","CLINICAL STUDY SPONSOR"],["CDISCPILOT01","AE","01-714-1425","AESEQ","1","AETRTEM","TREATMENT EMERGENT FLAG","N","DERIVED","CLINICAL STUDY SPONSOR"],["CDISCPILOT01","AE","01-715-1107","AESEQ","1","AETRTEM","TREATMENT EMERGENT FLAG","Y","DERIVED","CLINICAL STUDY SPONSOR"],["CDISCPILOT01","AE","01-715-1107","AESEQ","2","AETRTEM","TREATMENT EMERGENT FLAG","Y","DERIVED","CLINICAL STUDY SPONSOR"],["CDISCPILOT01","AE","01-715-1107","AESEQ","3","AETRTEM","TREATMENT EMERGENT FLAG","Y","DERIVED","CLINICAL STUDY SPONSOR"],["CDISCPILOT01","AE","01-715-1207","AESEQ","1","AETRTEM","TREATMENT EMERGENT FLAG","Y","DERIVED","CLINICAL STUDY SPONSOR"],["CDISCPILOT01","AE","01-715-1319","AESEQ","1","AETRTEM","TREATMENT EMERGENT FLAG","Y","DERIVED","CLINICAL STUDY SPONSOR"],["CDISCPILOT01","AE","01-715-1321","AESEQ","1","AETRTEM","TREATMENT EMERGENT FLAG","Y","DERIVED","CLINICAL STUDY SPONSOR"],["CDISCPILOT01","AE","01-715-1321","AESEQ","2","AETRTEM","TREATMENT EMERGENT FLAG","Y","DERIVED","CLINICAL STUDY SPONSOR"],["CDISCPILOT01","AE","01-715-1321","AESEQ","3","AETRTEM","TREATMENT EMERGENT FLAG","Y","DERIVED","CLINICAL STUDY SPONSOR"],["CDISCPILOT01","AE","01-715-1321","AESEQ","4","AETRTEM","TREATMENT EMERGENT FLAG","Y","DERIVED","CLINICAL STUDY SPONSOR"],["CDISCPILOT01","AE","01-715-1405","AESEQ","1","AETRTEM","TREATMENT EMERGENT FLAG","Y","DERIVED","CLINICAL STUDY SPONSOR"],["CDISCPILOT01","AE","01-715-1405","AESEQ","2","AETRTEM","TREATMENT EMERGENT FLAG","Y","DERIVED","CLINICAL STUDY SPONSOR"],["CDISCPILOT01","AE","01-715-1405","AESEQ","3","AETRTEM","TREATMENT EMERGENT FLAG","Y","DERIVED","CLINICAL STUDY SPONSOR"],["CDISCPILOT01","AE","01-715-1405","AESEQ","4","AETRTEM","TREATMENT EMERGENT FLAG","Y","DERIVED","CLINICAL STUDY SPONSOR"],["CDISCPILOT01","AE","01-715-1405","AESEQ","5","AETRTEM","TREATMENT EMERGENT FLAG","Y","DERIVED","CLINICAL STUDY SPONSOR"],["CDISCPILOT01","AE","01-715-1405","AESEQ","6","AETRTEM","TREATMENT EMERGENT FLAG","Y","DERIVED","CLINICAL STUDY SPONSOR"],["CDISCPILOT01","AE","01-716-1024","AESEQ","1","AETRTEM","TREATMENT EMERGENT FLAG","Y","DERIVED","CLINICAL STUDY SPONSOR"],["CDISCPILOT01","AE","01-716-1024","AESEQ","2","AETRTEM","TREATMENT EMERGENT FLAG","Y","DERIVED","CLINICAL STUDY SPONSOR"],["CDISCPILOT01","AE","01-716-1024","AESEQ","3","AETRTEM","TREATMENT EMERGENT FLAG","Y","DERIVED","CLINICAL STUDY SPONSOR"],["CDISCPILOT01","AE","01-716-1026","AESEQ","1","AETRTEM","TREATMENT EMERGENT FLAG","Y","DERIVED","CLINICAL STUDY SPONSOR"],["CDISCPILOT01","AE","01-716-1026","AESEQ","2","AETRTEM","TREATMENT EMERGENT FLAG","Y","DERIVED","CLINICAL STUDY SPONSOR"],["CDISCPILOT01","AE","01-716-1026","AESEQ","3","AETRTEM","TREATMENT EMERGENT FLAG","Y","DERIVED","CLINICAL STUDY SPONSOR"],["CDISCPILOT01","AE","01-716-1026","AESEQ","4","AETRTEM","TREATMENT EMERGENT FLAG","Y","DERIVED","CLINICAL STUDY SPONSOR"],["CDISCPILOT01","AE","01-716-1026","AESEQ","5","AETRTEM","TREATMENT EMERGENT FLAG","Y","DERIVED","CLINICAL STUDY SPONSOR"],["CDISCPILOT01","AE","01-716-1026","AESEQ","6","AETRTEM","TREATMENT EMERGENT FLAG","Y","DERIVED","CLINICAL STUDY SPONSOR"],["CDISCPILOT01","AE","01-716-1026","AESEQ","7","AETRTEM","TREATMENT EMERGENT FLAG","Y","DERIVED","CLINICAL STUDY SPONSOR"],["CDISCPILOT01","AE","01-716-1044","AESEQ","1","AETRTEM","TREATMENT EMERGENT FLAG","Y","DERIVED","CLINICAL STUDY SPONSOR"],["CDISCPILOT01","AE","01-716-1044","AESEQ","2","AETRTEM","TREATMENT EMERGENT FLAG","Y","DERIVED","CLINICAL STUDY SPONSOR"],["CDISCPILOT01","AE","01-716-1044","AESEQ","3","AETRTEM","TREATMENT EMERGENT FLAG","Y","DERIVED","CLINICAL STUDY SPONSOR"],["CDISCPILOT01","AE","01-716-1063","AESEQ","1","AETRTEM","TREATMENT EMERGENT FLAG","Y","DERIVED","CLINICAL STUDY SPONSOR"],["CDISCPILOT01","AE","01-716-1063","AESEQ","2","AETRTEM","TREATMENT EMERGENT FLAG","Y","DERIVED","CLINICAL STUDY SPONSOR"],["CDISCPILOT01","AE","01-716-1063","AESEQ","3","AETRTEM","TREATMENT EMERGENT FLAG","Y","DERIVED","CLINICAL STUDY SPONSOR"],["CDISCPILOT01","AE","01-716-1063","AESEQ","4","AETRTEM","TREATMENT EMERGENT FLAG","Y","DERIVED","CLINICAL STUDY SPONSOR"],["CDISCPILOT01","AE","01-716-1063","AESEQ","5","AETRTEM","TREATMENT EMERGENT FLAG","Y","DERIVED","CLINICAL STUDY SPONSOR"],["CDISCPILOT01","AE","01-716-1063","AESEQ","6","AETRTEM","TREATMENT EMERGENT FLAG","Y","DERIVED","CLINICAL STUDY SPONSOR"],["CDISCPILOT01","AE","01-716-1063","AESEQ","7","AETRTEM","TREATMENT EMERGENT FLAG","Y","DERIVED","CLINICAL STUDY SPONSOR"],["CDISCPILOT01","AE","01-716-1071","AESEQ","1","AETRTEM","TREATMENT EMERGENT FLAG","Y","DERIVED","CLINICAL STUDY SPONSOR"],["CDISCPILOT01","AE","01-716-1071","AESEQ","2","AETRTEM","TREATMENT EMERGENT FLAG","Y","DERIVED","CLINICAL STUDY SPONSOR"],["CDISCPILOT01","AE","01-716-1071","AESEQ","3","AETRTEM","TREATMENT EMERGENT FLAG","Y","DERIVED","CLINICAL STUDY SPONSOR"],["CDISCPILOT01","AE","01-716-1094","AESEQ","1","AETRTEM","TREATMENT EMERGENT FLAG","Y","DERIVED","CLINICAL STUDY SPONSOR"],["CDISCPILOT01","AE","01-716-1094","AESEQ","2","AETRTEM","TREATMENT EMERGENT FLAG","Y","DERIVED","CLINICAL STUDY SPONSOR"],["CDISCPILOT01","AE","01-716-1094","AESEQ","3","AETRTEM","TREATMENT EMERGENT FLAG","Y","DERIVED","CLINICAL STUDY SPONSOR"],["CDISCPILOT01","AE","01-716-1103","AESEQ","1","AETRTEM","TREATMENT EMERGENT FLAG","Y","DERIVED","CLINICAL STUDY SPONSOR"],["CDISCPILOT01","AE","01-716-1103","AESEQ","2","AETRTEM","TREATMENT EMERGENT FLAG","Y","DERIVED","CLINICAL STUDY SPONSOR"],["CDISCPILOT01","AE","01-716-1103","AESEQ","3","AETRTEM","TREATMENT EMERGENT FLAG","Y","DERIVED","CLINICAL STUDY SPONSOR"],["CDISCPILOT01","AE","01-716-1103","AESEQ","4","AETRTEM","TREATMENT EMERGENT FLAG","Y","DERIVED","CLINICAL STUDY SPONSOR"],["CDISCPILOT01","AE","01-716-1103","AESEQ","5","AETRTEM","TREATMENT EMERGENT FLAG","Y","DERIVED","CLINICAL STUDY SPONSOR"],["CDISCPILOT01","AE","01-716-1108","AESEQ","1","AETRTEM","TREATMENT EMERGENT FLAG","Y","DERIVED","CLINICAL STUDY SPONSOR"],["CDISCPILOT01","AE","01-716-1108","AESEQ","2","AETRTEM","TREATMENT EMERGENT FLAG","Y","DERIVED","CLINICAL STUDY SPONSOR"],["CDISCPILOT01","AE","01-716-1151","AESEQ","1","AETRTEM","TREATMENT EMERGENT FLAG","Y","DERIVED","CLINICAL STUDY SPONSOR"],["CDISCPILOT01","AE","01-716-1151","AESEQ","2","AETRTEM","TREATMENT EMERGENT FLAG","Y","DERIVED","CLINICAL STUDY SPONSOR"],["CDISCPILOT01","AE","01-716-1151","AESEQ","3","AETRTEM","TREATMENT EMERGENT FLAG","Y","DERIVED","CLINICAL STUDY SPONSOR"],["CDISCPILOT01","AE","01-716-1151","AESEQ","4","AETRTEM","TREATMENT EMERGENT FLAG","Y","DERIVED","CLINICAL STUDY SPONSOR"],["CDISCPILOT01","AE","01-716-1157","AESEQ","1","AETRTEM","TREATMENT EMERGENT FLAG","Y","DERIVED","CLINICAL STUDY SPONSOR"],["CDISCPILOT01","AE","01-716-1157","AESEQ","2","AETRTEM","TREATMENT EMERGENT FLAG","Y","DERIVED","CLINICAL STUDY SPONSOR"],["CDISCPILOT01","AE","01-716-1157","AESEQ","3","AETRTEM","TREATMENT EMERGENT FLAG","Y","DERIVED","CLINICAL STUDY SPONSOR"],["CDISCPILOT01","AE","01-716-1157","AESEQ","4","AETRTEM","TREATMENT EMERGENT FLAG","Y","DERIVED","CLINICAL STUDY SPONSOR"],["CDISCPILOT01","AE","01-716-1160","AESEQ","1","AETRTEM","TREATMENT EMERGENT FLAG","Y","DERIVED","CLINICAL STUDY SPONSOR"],["CDISCPILOT01","AE","01-716-1160","AESEQ","2","AETRTEM","TREATMENT EMERGENT FLAG","Y","DERIVED","CLINICAL STUDY SPONSOR"],["CDISCPILOT01","AE","01-716-1167","AESEQ","1","AETRTEM","TREATMENT EMERGENT FLAG","Y","DERIVED","CLINICAL STUDY SPONSOR"],["CDISCPILOT01","AE","01-716-1167","AESEQ","2","AETRTEM","TREATMENT EMERGENT FLAG","Y","DERIVED","CLINICAL STUDY SPONSOR"],["CDISCPILOT01","AE","01-716-1167","AESEQ","3","AETRTEM","TREATMENT EMERGENT FLAG","Y","DERIVED","CLINICAL STUDY SPONSOR"],["CDISCPILOT01","AE","01-716-1167","AESEQ","4","AETRTEM","TREATMENT EMERGENT FLAG","Y","DERIVED","CLINICAL STUDY SPONSOR"],["CDISCPILOT01","AE","01-716-1167","AESEQ","5","AETRTEM","TREATMENT EMERGENT FLAG","Y","DERIVED","CLINICAL STUDY SPONSOR"],["CDISCPILOT01","AE","01-716-1177","AESEQ","1","AETRTEM","TREATMENT EMERGENT FLAG","N","DERIVED","CLINICAL STUDY SPONSOR"],["CDISCPILOT01","AE","01-716-1189","AESEQ","1","AETRTEM","TREATMENT EMERGENT FLAG","Y","DERIVED","CLINICAL STUDY SPONSOR"],["CDISCPILOT01","AE","01-716-1189","AESEQ","2","AETRTEM","TREATMENT EMERGENT FLAG","Y","DERIVED","CLINICAL STUDY SPONSOR"],["CDISCPILOT01","AE","01-716-1189","AESEQ","3","AETRTEM","TREATMENT EMERGENT FLAG","Y","DERIVED","CLINICAL STUDY SPONSOR"],["CDISCPILOT01","AE","01-716-1189","AESEQ","4","AETRTEM","TREATMENT EMERGENT FLAG","Y","DERIVED","CLINICAL STUDY SPONSOR"],["CDISCPILOT01","AE","01-716-1229","AESEQ","1","AETRTEM","TREATMENT EMERGENT FLAG","Y","DERIVED","CLINICAL STUDY SPONSOR"],["CDISCPILOT01","AE","01-716-1229","AESEQ","2","AETRTEM","TREATMENT EMERGENT FLAG","Y","DERIVED","CLINICAL STUDY SPONSOR"],["CDISCPILOT01","AE","01-716-1298","AESEQ","1","AETRTEM","TREATMENT EMERGENT FLAG","Y","DERIVED","CLINICAL STUDY SPONSOR"],["CDISCPILOT01","AE","01-716-1298","AESEQ","2","AETRTEM","TREATMENT EMERGENT FLAG","Y","DERIVED","CLINICAL STUDY SPONSOR"],["CDISCPILOT01","AE","01-716-1298","AESEQ","3","AETRTEM","TREATMENT EMERGENT FLAG","Y","DERIVED","CLINICAL STUDY SPONSOR"],["CDISCPILOT01","AE","01-716-1298","AESEQ","4","AETRTEM","TREATMENT EMERGENT FLAG","Y","DERIVED","CLINICAL STUDY SPONSOR"],["CDISCPILOT01","AE","01-716-1298","AESEQ","5","AETRTEM","TREATMENT EMERGENT FLAG","Y","DERIVED","CLINICAL STUDY SPONSOR"],["CDISCPILOT01","AE","01-716-1298","AESEQ","6","AETRTEM","TREATMENT EMERGENT FLAG","Y","DERIVED","CLINICAL STUDY SPONSOR"],["CDISCPILOT01","AE","01-716-1308","AESEQ","1","AETRTEM","TREATMENT EMERGENT FLAG","Y","DERIVED","CLINICAL STUDY SPONSOR"],["CDISCPILOT01","AE","01-716-1311","AESEQ","1","AETRTEM","TREATMENT EMERGENT FLAG","Y","DERIVED","CLINICAL STUDY SPONSOR"],["CDISCPILOT01","AE","01-716-1311","AESEQ","2","AETRTEM","TREATMENT EMERGENT FLAG","Y","DERIVED","CLINICAL STUDY SPONSOR"],["CDISCPILOT01","AE","01-716-1311","AESEQ","3","AETRTEM","TREATMENT EMERGENT FLAG","Y","DERIVED","CLINICAL STUDY SPONSOR"],["CDISCPILOT01","AE","01-716-1311","AESEQ","4","AETRTEM","TREATMENT EMERGENT FLAG","Y","DERIVED","CLINICAL STUDY SPONSOR"],["CDISCPILOT01","AE","01-716-1364","AESEQ","1","AETRTEM","TREATMENT EMERGENT FLAG","Y","DERIVED","CLINICAL STUDY SPONSOR"],["CDISCPILOT01","AE","01-716-1364","AESEQ","2","AETRTEM","TREATMENT EMERGENT FLAG","Y","DERIVED","CLINICAL STUDY SPONSOR"],["CDISCPILOT01","AE","01-716-1373","AESEQ","1","AETRTEM","TREATMENT EMERGENT FLAG","Y","DERIVED","CLINICAL STUDY SPONSOR"],["CDISCPILOT01","AE","01-716-1373","AESEQ","2","AETRTEM","TREATMENT EMERGENT FLAG","Y","DERIVED","CLINICAL STUDY SPONSOR"],["CDISCPILOT01","AE","01-716-1418","AESEQ","1","AETRTEM","TREATMENT EMERGENT FLAG","Y","DERIVED","CLINICAL STUDY SPONSOR"],["CDISCPILOT01","AE","01-716-1418","AESEQ","10","AETRTEM","TREATMENT EMERGENT FLAG","Y","DERIVED","CLINICAL STUDY SPONSOR"],["CDISCPILOT01","AE","01-716-1418","AESEQ","2","AETRTEM","TREATMENT EMERGENT FLAG","Y","DERIVED","CLINICAL STUDY SPONSOR"],["CDISCPILOT01","AE","01-716-1418","AESEQ","3","AETRTEM","TREATMENT EMERGENT FLAG","Y","DERIVED","CLINICAL STUDY SPONSOR"],["CDISCPILOT01","AE","01-716-1418","AESEQ","4","AETRTEM","TREATMENT EMERGENT FLAG","Y","DERIVED","CLINICAL STUDY SPONSOR"],["CDISCPILOT01","AE","01-716-1418","AESEQ","5","AETRTEM","TREATMENT EMERGENT FLAG","Y","DERIVED","CLINICAL STUDY SPONSOR"],["CDISCPILOT01","AE","01-716-1418","AESEQ","6","AETRTEM","TREATMENT EMERGENT FLAG","Y","DERIVED","CLINICAL STUDY SPONSOR"],["CDISCPILOT01","AE","01-716-1418","AESEQ","7","AETRTEM","TREATMENT EMERGENT FLAG","Y","DERIVED","CLINICAL STUDY SPONSOR"],["CDISCPILOT01","AE","01-716-1418","AESEQ","8","AETRTEM","TREATMENT EMERGENT FLAG","Y","DERIVED","CLINICAL STUDY SPONSOR"],["CDISCPILOT01","AE","01-716-1418","AESEQ","9","AETRTEM","TREATMENT EMERGENT FLAG","Y","DERIVED","CLINICAL STUDY SPONSOR"],["CDISCPILOT01","AE","01-716-1441","AESEQ","1","AETRTEM","TREATMENT EMERGENT FLAG","Y","DERIVED","CLINICAL STUDY SPONSOR"],["CDISCPILOT01","AE","01-716-1447","AESEQ","1","AETRTEM","TREATMENT EMERGENT FLAG","Y","DERIVED","CLINICAL STUDY SPONSOR"],["CDISCPILOT01","AE","01-716-1447","AESEQ","2","AETRTEM","TREATMENT EMERGENT FLAG","Y","DERIVED","CLINICAL STUDY SPONSOR"],["CDISCPILOT01","AE","01-716-1447","AESEQ","3","AETRTEM","TREATMENT EMERGENT FLAG","Y","DERIVED","CLINICAL STUDY SPONSOR"],["CDISCPILOT01","AE","01-716-1447","AESEQ","4","AETRTEM","TREATMENT EMERGENT FLAG","Y","DERIVED","CLINICAL STUDY SPONSOR"],["CDISCPILOT01","AE","01-716-1447","AESEQ","5","AETRTEM","TREATMENT EMERGENT FLAG","Y","DERIVED","CLINICAL STUDY SPONSOR"],["CDISCPILOT01","AE","01-717-1004","AESEQ","1","AETRTEM","TREATMENT EMERGENT FLAG","N","DERIVED","CLINICAL STUDY SPONSOR"],["CDISCPILOT01","AE","01-717-1004","AESEQ","10","AETRTEM","TREATMENT EMERGENT FLAG","N","DERIVED","CLINICAL STUDY SPONSOR"],["CDISCPILOT01","AE","01-717-1004","AESEQ","11","AETRTEM","TREATMENT EMERGENT FLAG","Y","DERIVED","CLINICAL STUDY SPONSOR"],["CDISCPILOT01","AE","01-717-1004","AESEQ","12","AETRTEM","TREATMENT EMERGENT FLAG","Y","DERIVED","CLINICAL STUDY SPONSOR"],["CDISCPILOT01","AE","01-717-1004","AESEQ","13","AETRTEM","TREATMENT EMERGENT FLAG","Y","DERIVED","CLINICAL STUDY SPONSOR"],["CDISCPILOT01","AE","01-717-1004","AESEQ","14","AETRTEM","TREATMENT EMERGENT FLAG","Y","DERIVED","CLINICAL STUDY SPONSOR"],["CDISCPILOT01","AE","01-717-1004","AESEQ","15","AETRTEM","TREATMENT EMERGENT FLAG","Y","DERIVED","CLINICAL STUDY SPONSOR"],["CDISCPILOT01","AE","01-717-1004","AESEQ","16","AETRTEM","TREATMENT EMERGENT FLAG","Y","DERIVED","CLINICAL STUDY SPONSOR"],["CDISCPILOT01","AE","01-717-1004","AESEQ","17","AETRTEM","TREATMENT EMERGENT FLAG","Y","DERIVED","CLINICAL STUDY SPONSOR"],["CDISCPILOT01","AE","01-717-1004","AESEQ","18","AETRTEM","TREATMENT EMERGENT FLAG","Y","DERIVED","CLINICAL STUDY SPONSOR"],["CDISCPILOT01","AE","01-717-1004","AESEQ","19","AETRTEM","TREATMENT EMERGENT FLAG","Y","DERIVED","CLINICAL STUDY SPONSOR"],["CDISCPILOT01","AE","01-717-1004","AESEQ","2","AETRTEM","TREATMENT EMERGENT FLAG","N","DERIVED","CLINICAL STUDY SPONSOR"],["CDISCPILOT01","AE","01-717-1004","AESEQ","3","AETRTEM","TREATMENT EMERGENT FLAG","Y","DERIVED","CLINICAL STUDY SPONSOR"],["CDISCPILOT01","AE","01-717-1004","AESEQ","4","AETRTEM","TREATMENT EMERGENT FLAG","Y","DERIVED","CLINICAL STUDY SPONSOR"],["CDISCPILOT01","AE","01-717-1004","AESEQ","5","AETRTEM","TREATMENT EMERGENT FLAG","Y","DERIVED","CLINICAL STUDY SPONSOR"],["CDISCPILOT01","AE","01-717-1004","AESEQ","6","AETRTEM","TREATMENT EMERGENT FLAG","Y","DERIVED","CLINICAL STUDY SPONSOR"],["CDISCPILOT01","AE","01-717-1004","AESEQ","7","AETRTEM","TREATMENT EMERGENT FLAG","Y","DERIVED","CLINICAL STUDY SPONSOR"],["CDISCPILOT01","AE","01-717-1004","AESEQ","8","AETRTEM","TREATMENT EMERGENT FLAG","Y","DERIVED","CLINICAL STUDY SPONSOR"],["CDISCPILOT01","AE","01-717-1004","AESEQ","9","AETRTEM","TREATMENT EMERGENT FLAG","Y","DERIVED","CLINICAL STUDY SPONSOR"],["CDISCPILOT01","AE","01-717-1109","AESEQ","1","AETRTEM","TREATMENT EMERGENT FLAG","Y","DERIVED","CLINICAL STUDY SPONSOR"],["CDISCPILOT01","AE","01-717-1109","AESEQ","2","AETRTEM","TREATMENT EMERGENT FLAG","Y","DERIVED","CLINICAL STUDY SPONSOR"],["CDISCPILOT01","AE","01-717-1109","AESEQ","3","AETRTEM","TREATMENT EMERGENT FLAG","Y","DERIVED","CLINICAL STUDY SPONSOR"],["CDISCPILOT01","AE","01-717-1109","AESEQ","4","AETRTEM","TREATMENT EMERGENT FLAG","Y","DERIVED","CLINICAL STUDY SPONSOR"],["CDISCPILOT01","AE","01-717-1109","AESEQ","5","AETRTEM","TREATMENT EMERGENT FLAG","Y","DERIVED","CLINICAL STUDY SPONSOR"],["CDISCPILOT01","AE","01-717-1109","AESEQ","6","AETRTEM","TREATMENT EMERGENT FLAG","Y","DERIVED","CLINICAL STUDY SPONSOR"],["CDISCPILOT01","AE","01-717-1109","AESEQ","7","AETRTEM","TREATMENT EMERGENT FLAG","Y","DERIVED","CLINICAL STUDY SPONSOR"],["CDISCPILOT01","AE","01-717-1109","AESEQ","8","AETRTEM","TREATMENT EMERGENT FLAG","Y","DERIVED","CLINICAL STUDY SPONSOR"],["CDISCPILOT01","AE","01-717-1174","AESEQ","1","AETRTEM","TREATMENT EMERGENT FLAG","Y","DERIVED","CLINICAL STUDY SPONSOR"],["CDISCPILOT01","AE","01-717-1174","AESEQ","2","AETRTEM","TREATMENT EMERGENT FLAG","Y","DERIVED","CLINICAL STUDY SPONSOR"],["CDISCPILOT01","AE","01-717-1174","AESEQ","3","AETRTEM","TREATMENT EMERGENT FLAG","Y","DERIVED","CLINICAL STUDY SPONSOR"],["CDISCPILOT01","AE","01-717-1174","AESEQ","4","AETRTEM","TREATMENT EMERGENT FLAG","Y","DERIVED","CLINICAL STUDY SPONSOR"],["CDISCPILOT01","AE","01-717-1174","AESEQ","5","AETRTEM","TREATMENT EMERGENT FLAG","Y","DERIVED","CLINICAL STUDY SPONSOR"],["CDISCPILOT01","AE","01-717-1174","AESEQ","6","AETRTEM","TREATMENT EMERGENT FLAG","Y","DERIVED","CLINICAL STUDY SPONSOR"],["CDISCPILOT01","AE","01-717-1201","AESEQ","1","AETRTEM","TREATMENT EMERGENT FLAG","Y","DERIVED","CLINICAL STUDY SPONSOR"],["CDISCPILOT01","AE","01-717-1201","AESEQ","2","AETRTEM","TREATMENT EMERGENT FLAG","Y","DERIVED","CLINICAL STUDY SPONSOR"],["CDISCPILOT01","AE","01-717-1344","AESEQ","1","AETRTEM","TREATMENT EMERGENT FLAG","Y","DERIVED","CLINICAL STUDY SPONSOR"],["CDISCPILOT01","AE","01-717-1344","AESEQ","2","AETRTEM","TREATMENT EMERGENT FLAG","Y","DERIVED","CLINICAL STUDY SPONSOR"],["CDISCPILOT01","AE","01-717-1344","AESEQ","3","AETRTEM","TREATMENT EMERGENT FLAG","Y","DERIVED","CLINICAL STUDY SPONSOR"],["CDISCPILOT01","AE","01-717-1344","AESEQ","4","AETRTEM","TREATMENT EMERGENT FLAG","Y","DERIVED","CLINICAL STUDY SPONSOR"],["CDISCPILOT01","AE","01-717-1344","AESEQ","5","AETRTEM","TREATMENT EMERGENT FLAG","Y","DERIVED","CLINICAL STUDY SPONSOR"],["CDISCPILOT01","AE","01-717-1357","AESEQ","1","AETRTEM","TREATMENT EMERGENT FLAG","N","DERIVED","CLINICAL STUDY SPONSOR"],["CDISCPILOT01","AE","01-717-1357","AESEQ","2","AETRTEM","TREATMENT EMERGENT FLAG","Y","DERIVED","CLINICAL STUDY SPONSOR"],["CDISCPILOT01","AE","01-717-1357","AESEQ","3","AETRTEM","TREATMENT EMERGENT FLAG","Y","DERIVED","CLINICAL STUDY SPONSOR"],["CDISCPILOT01","AE","01-717-1357","AESEQ","4","AETRTEM","TREATMENT EMERGENT FLAG","Y","DERIVED","CLINICAL STUDY SPONSOR"],["CDISCPILOT01","AE","01-717-1357","AESEQ","5","AETRTEM","TREATMENT EMERGENT FLAG","Y","DERIVED","CLINICAL STUDY SPONSOR"],["CDISCPILOT01","AE","01-717-1357","AESEQ","6","AETRTEM","TREATMENT EMERGENT FLAG","Y","DERIVED","CLINICAL STUDY SPONSOR"],["CDISCPILOT01","AE","01-717-1357","AESEQ","7","AETRTEM","TREATMENT EMERGENT FLAG","Y","DERIVED","CLINICAL STUDY SPONSOR"],["CDISCPILOT01","AE","01-717-1357","AESEQ","8","AETRTEM","TREATMENT EMERGENT FLAG","Y","DERIVED","CLINICAL STUDY SPONSOR"],["CDISCPILOT01","AE","01-717-1357","AESEQ","9","AETRTEM","TREATMENT EMERGENT FLAG","Y","DERIVED","CLINICAL STUDY SPONSOR"],["CDISCPILOT01","AE","01-717-1446","AESEQ","1","AETRTEM","TREATMENT EMERGENT FLAG","Y","DERIVED","CLINICAL STUDY SPONSOR"],["CDISCPILOT01","AE","01-717-1446","AESEQ","2","AETRTEM","TREATMENT EMERGENT FLAG","Y","DERIVED","CLINICAL STUDY SPONSOR"],["CDISCPILOT01","AE","01-717-1446","AESEQ","3","AETRTEM","TREATMENT EMERGENT FLAG","Y","DERIVED","CLINICAL STUDY SPONSOR"],["CDISCPILOT01","AE","01-717-1446","AESEQ","4","AETRTEM","TREATMENT EMERGENT FLAG","Y","DERIVED","CLINICAL STUDY SPONSOR"],["CDISCPILOT01","AE","01-717-1446","AESEQ","5","AETRTEM","TREATMENT EMERGENT FLAG","Y","DERIVED","CLINICAL STUDY SPONSOR"],["CDISCPILOT01","AE","01-717-1446","AESEQ","6","AETRTEM","TREATMENT EMERGENT FLAG","Y","DERIVED","CLINICAL STUDY SPONSOR"],["CDISCPILOT01","AE","01-717-1446","AESEQ","7","AETRTEM","TREATMENT EMERGENT FLAG","Y","DERIVED","CLINICAL STUDY SPONSOR"],["CDISCPILOT01","AE","01-717-1446","AESEQ","8","AETRTEM","TREATMENT EMERGENT FLAG","Y","DERIVED","CLINICAL STUDY SPONSOR"],["CDISCPILOT01","AE","01-717-1446","AESEQ","9","AETRTEM","TREATMENT EMERGENT FLAG","Y","DERIVED","CLINICAL STUDY SPONSOR"],["CDISCPILOT01","AE","01-718-1066","AESEQ","1","AETRTEM","TREATMENT EMERGENT FLAG","Y","DERIVED","CLINICAL STUDY SPONSOR"],["CDISCPILOT01","AE","01-718-1066","AESEQ","2","AETRTEM","TREATMENT EMERGENT FLAG","Y","DERIVED","CLINICAL STUDY SPONSOR"],["CDISCPILOT01","AE","01-718-1066","AESEQ","3","AETRTEM","TREATMENT EMERGENT FLAG","Y","DERIVED","CLINICAL STUDY SPONSOR"],["CDISCPILOT01","AE","01-718-1066","AESEQ","4","AETRTEM","TREATMENT EMERGENT FLAG","Y","DERIVED","CLINICAL STUDY SPONSOR"],["CDISCPILOT01","AE","01-718-1079","AESEQ","1","AETRTEM","TREATMENT EMERGENT FLAG","Y","DERIVED","CLINICAL STUDY SPONSOR"],["CDISCPILOT01","AE","01-718-1079","AESEQ","2","AETRTEM","TREATMENT EMERGENT FLAG","Y","DERIVED","CLINICAL STUDY SPONSOR"],["CDISCPILOT01","AE","01-718-1079","AESEQ","3","AETRTEM","TREATMENT EMERGENT FLAG","Y","DERIVED","CLINICAL STUDY SPONSOR"],["CDISCPILOT01","AE","01-718-1101","AESEQ","1","AETRTEM","TREATMENT EMERGENT FLAG","Y","DERIVED","CLINICAL STUDY SPONSOR"],["CDISCPILOT01","AE","01-718-1101","AESEQ","2","AETRTEM","TREATMENT EMERGENT FLAG","Y","DERIVED","CLINICAL STUDY SPONSOR"],["CDISCPILOT01","AE","01-718-1101","AESEQ","3","AETRTEM","TREATMENT EMERGENT FLAG","Y","DERIVED","CLINICAL STUDY SPONSOR"],["CDISCPILOT01","AE","01-718-1101","AESEQ","4","AETRTEM","TREATMENT EMERGENT FLAG","Y","DERIVED","CLINICAL STUDY SPONSOR"],["CDISCPILOT01","AE","01-718-1101","AESEQ","5","AETRTEM","TREATMENT EMERGENT FLAG","Y","DERIVED","CLINICAL STUDY SPONSOR"],["CDISCPILOT01","AE","01-718-1101","AESEQ","6","AETRTEM","TREATMENT EMERGENT FLAG","Y","DERIVED","CLINICAL STUDY SPONSOR"],["CDISCPILOT01","AE","01-718-1139","AESEQ","1","AETRTEM","TREATMENT EMERGENT FLAG","Y","DERIVED","CLINICAL STUDY SPONSOR"],["CDISCPILOT01","AE","01-718-1139","AESEQ","2","AETRTEM","TREATMENT EMERGENT FLAG","Y","DERIVED","CLINICAL STUDY SPONSOR"],["CDISCPILOT01","AE","01-718-1139","AESEQ","3","AETRTEM","TREATMENT EMERGENT FLAG","Y","DERIVED","CLINICAL STUDY SPONSOR"],["CDISCPILOT01","AE","01-718-1150","AESEQ","1","AETRTEM","TREATMENT EMERGENT FLAG","Y","DERIVED","CLINICAL STUDY SPONSOR"],["CDISCPILOT01","AE","01-718-1150","AESEQ","10","AETRTEM","TREATMENT EMERGENT FLAG","Y","DERIVED","CLINICAL STUDY SPONSOR"],["CDISCPILOT01","AE","01-718-1150","AESEQ","2","AETRTEM","TREATMENT EMERGENT FLAG","Y","DERIVED","CLINICAL STUDY SPONSOR"],["CDISCPILOT01","AE","01-718-1150","AESEQ","3","AETRTEM","TREATMENT EMERGENT FLAG","Y","DERIVED","CLINICAL STUDY SPONSOR"],["CDISCPILOT01","AE","01-718-1150","AESEQ","4","AETRTEM","TREATMENT EMERGENT FLAG","Y","DERIVED","CLINICAL STUDY SPONSOR"],["CDISCPILOT01","AE","01-718-1150","AESEQ","5","AETRTEM","TREATMENT EMERGENT FLAG","Y","DERIVED","CLINICAL STUDY SPONSOR"],["CDISCPILOT01","AE","01-718-1150","AESEQ","6","AETRTEM","TREATMENT EMERGENT FLAG","Y","DERIVED","CLINICAL STUDY SPONSOR"],["CDISCPILOT01","AE","01-718-1150","AESEQ","7","AETRTEM","TREATMENT EMERGENT FLAG","Y","DERIVED","CLINICAL STUDY SPONSOR"],["CDISCPILOT01","AE","01-718-1150","AESEQ","8","AETRTEM","TREATMENT EMERGENT FLAG","Y","DERIVED","CLINICAL STUDY SPONSOR"],["CDISCPILOT01","AE","01-718-1150","AESEQ","9","AETRTEM","TREATMENT EMERGENT FLAG","Y","DERIVED","CLINICAL STUDY SPONSOR"],["CDISCPILOT01","AE","01-718-1170","AESEQ","1","AETRTEM","TREATMENT EMERGENT FLAG","Y","DERIVED","CLINICAL STUDY SPONSOR"],["CDISCPILOT01","AE","01-718-1170","AESEQ","2","AETRTEM","TREATMENT EMERGENT FLAG","Y","DERIVED","CLINICAL STUDY SPONSOR"],["CDISCPILOT01","AE","01-718-1170","AESEQ","3","AETRTEM","TREATMENT EMERGENT FLAG","Y","DERIVED","CLINICAL STUDY SPONSOR"],["CDISCPILOT01","AE","01-718-1170","AESEQ","4","AETRTEM","TREATMENT EMERGENT FLAG","Y","DERIVED","CLINICAL STUDY SPONSOR"],["CDISCPILOT01","AE","01-718-1170","AESEQ","5","AETRTEM","TREATMENT EMERGENT FLAG","Y","DERIVED","CLINICAL STUDY SPONSOR"],["CDISCPILOT01","AE","01-718-1170","AESEQ","6","AETRTEM","TREATMENT EMERGENT FLAG","Y","DERIVED","CLINICAL STUDY SPONSOR"],["CDISCPILOT01","AE","01-718-1250","AESEQ","1","AETRTEM","TREATMENT EMERGENT FLAG","Y","DERIVED","CLINICAL STUDY SPONSOR"],["CDISCPILOT01","AE","01-718-1250","AESEQ","10","AETRTEM","TREATMENT EMERGENT FLAG","Y","DERIVED","CLINICAL STUDY SPONSOR"],["CDISCPILOT01","AE","01-718-1250","AESEQ","11","AETRTEM","TREATMENT EMERGENT FLAG","Y","DERIVED","CLINICAL STUDY SPONSOR"],["CDISCPILOT01","AE","01-718-1250","AESEQ","2","AETRTEM","TREATMENT EMERGENT FLAG","Y","DERIVED","CLINICAL STUDY SPONSOR"],["CDISCPILOT01","AE","01-718-1250","AESEQ","3","AETRTEM","TREATMENT EMERGENT FLAG","Y","DERIVED","CLINICAL STUDY SPONSOR"],["CDISCPILOT01","AE","01-718-1250","AESEQ","4","AETRTEM","TREATMENT EMERGENT FLAG","Y","DERIVED","CLINICAL STUDY SPONSOR"],["CDISCPILOT01","AE","01-718-1250","AESEQ","5","AETRTEM","TREATMENT EMERGENT FLAG","Y","DERIVED","CLINICAL STUDY SPONSOR"],["CDISCPILOT01","AE","01-718-1250","AESEQ","6","AETRTEM","TREATMENT EMERGENT FLAG","Y","DERIVED","CLINICAL STUDY SPONSOR"],["CDISCPILOT01","AE","01-718-1250","AESEQ","7","AETRTEM","TREATMENT EMERGENT FLAG","Y","DERIVED","CLINICAL STUDY SPONSOR"],["CDISCPILOT01","AE","01-718-1250","AESEQ","8","AETRTEM","TREATMENT EMERGENT FLAG","Y","DERIVED","CLINICAL STUDY SPONSOR"],["CDISCPILOT01","AE","01-718-1250","AESEQ","9","AETRTEM","TREATMENT EMERGENT FLAG","Y","DERIVED","CLINICAL STUDY SPONSOR"],["CDISCPILOT01","AE","01-718-1254","AESEQ","1","AETRTEM","TREATMENT EMERGENT FLAG","Y","DERIVED","CLINICAL STUDY SPONSOR"],["CDISCPILOT01","AE","01-718-1254","AESEQ","2","AETRTEM","TREATMENT EMERGENT FLAG","Y","DERIVED","CLINICAL STUDY SPONSOR"],["CDISCPILOT01","AE","01-718-1254","AESEQ","3","AETRTEM","TREATMENT EMERGENT FLAG","Y","DERIVED","CLINICAL STUDY SPONSOR"],["CDISCPILOT01","AE","01-718-1254","AESEQ","4","AETRTEM","TREATMENT EMERGENT FLAG","Y","DERIVED","CLINICAL STUDY SPONSOR"],["CDISCPILOT01","AE","01-718-1254","AESEQ","5","AETRTEM","TREATMENT EMERGENT FLAG","Y","DERIVED","CLINICAL STUDY SPONSOR"],["CDISCPILOT01","AE","01-718-1254","AESEQ","6","AETRTEM","TREATMENT EMERGENT FLAG","Y","DERIVED","CLINICAL STUDY SPONSOR"],["CDISCPILOT01","AE","01-718-1254","AESEQ","7","AETRTEM","TREATMENT EMERGENT FLAG","Y","DERIVED","CLINICAL STUDY SPONSOR"],["CDISCPILOT01","AE","01-718-1254","AESEQ","8","AETRTEM","TREATMENT EMERGENT FLAG","Y","DERIVED","CLINICAL STUDY SPONSOR"],["CDISCPILOT01","AE","01-718-1254","AESEQ","9","AETRTEM","TREATMENT EMERGENT FLAG","Y","DERIVED","CLINICAL STUDY SPONSOR"],["CDISCPILOT01","AE","01-718-1328","AESEQ","1","AETRTEM","TREATMENT EMERGENT FLAG","Y","DERIVED","CLINICAL STUDY SPONSOR"],["CDISCPILOT01","AE","01-718-1328","AESEQ","2","AETRTEM","TREATMENT EMERGENT FLAG","Y","DERIVED","CLINICAL STUDY SPONSOR"],["CDISCPILOT01","AE","01-718-1328","AESEQ","3","AETRTEM","TREATMENT EMERGENT FLAG","Y","DERIVED","CLINICAL STUDY SPONSOR"],["CDISCPILOT01","AE","01-718-1328","AESEQ","4","AETRTEM","TREATMENT EMERGENT FLAG","Y","DERIVED","CLINICAL STUDY SPONSOR"],["CDISCPILOT01","AE","01-718-1355","AESEQ","1","AETRTEM","TREATMENT EMERGENT FLAG","Y","DERIVED","CLINICAL STUDY SPONSOR"],["CDISCPILOT01","AE","01-718-1355","AESEQ","10","AETRTEM","TREATMENT EMERGENT FLAG","Y","DERIVED","CLINICAL STUDY SPONSOR"],["CDISCPILOT01","AE","01-718-1355","AESEQ","11","AETRTEM","TREATMENT EMERGENT FLAG","Y","DERIVED","CLINICAL STUDY SPONSOR"],["CDISCPILOT01","AE","01-718-1355","AESEQ","12","AETRTEM","TREATMENT EMERGENT FLAG","Y","DERIVED","CLINICAL STUDY SPONSOR"],["CDISCPILOT01","AE","01-718-1355","AESEQ","13","AETRTEM","TREATMENT EMERGENT FLAG","Y","DERIVED","CLINICAL STUDY SPONSOR"],["CDISCPILOT01","AE","01-718-1355","AESEQ","2","AETRTEM","TREATMENT EMERGENT FLAG","Y","DERIVED","CLINICAL STUDY SPONSOR"],["CDISCPILOT01","AE","01-718-1355","AESEQ","3","AETRTEM","TREATMENT EMERGENT FLAG","N","DERIVED","CLINICAL STUDY SPONSOR"],["CDISCPILOT01","AE","01-718-1355","AESEQ","4","AETRTEM","TREATMENT EMERGENT FLAG","Y","DERIVED","CLINICAL STUDY SPONSOR"],["CDISCPILOT01","AE","01-718-1355","AESEQ","5","AETRTEM","TREATMENT EMERGENT FLAG","Y","DERIVED","CLINICAL STUDY SPONSOR"],["CDISCPILOT01","AE","01-718-1355","AESEQ","6","AETRTEM","TREATMENT EMERGENT FLAG","Y","DERIVED","CLINICAL STUDY SPONSOR"],["CDISCPILOT01","AE","01-718-1355","AESEQ","7","AETRTEM","TREATMENT EMERGENT FLAG","Y","DERIVED","CLINICAL STUDY SPONSOR"],["CDISCPILOT01","AE","01-718-1355","AESEQ","8","AETRTEM","TREATMENT EMERGENT FLAG","Y","DERIVED","CLINICAL STUDY SPONSOR"],["CDISCPILOT01","AE","01-718-1355","AESEQ","9","AETRTEM","TREATMENT EMERGENT FLAG","Y","DERIVED","CLINICAL STUDY SPONSOR"],["CDISCPILOT01","AE","01-718-1371","AESEQ","1","AETRTEM","TREATMENT EMERGENT FLAG","Y","DERIVED","CLINICAL STUDY SPONSOR"],["CDISCPILOT01","AE","01-718-1371","AESEQ","2","AETRTEM","TREATMENT EMERGENT FLAG","Y","DERIVED","CLINICAL STUDY SPONSOR"],["CDISCPILOT01","AE","01-718-1371","AESEQ","3","AETRTEM","TREATMENT EMERGENT FLAG","Y","DERIVED","CLINICAL STUDY SPONSOR"],["CDISCPILOT01","AE","01-718-1371","AESEQ","4","AETRTEM","TREATMENT EMERGENT FLAG","Y","DERIVED","CLINICAL STUDY SPONSOR"],["CDISCPILOT01","AE","01-718-1371","AESEQ","5","AETRTEM","TREATMENT EMERGENT FLAG","Y","DERIVED","CLINICAL STUDY SPONSOR"],["CDISCPILOT01","AE","01-718-1371","AESEQ","6","AETRTEM","TREATMENT EMERGENT FLAG","Y","DERIVED","CLINICAL STUDY SPONSOR"],["CDISCPILOT01","AE","01-718-1427","AESEQ","1","AETRTEM","TREATMENT EMERGENT FLAG","Y","DERIVED","CLINICAL STUDY SPONSOR"],["CDISCPILOT01","AE","01-718-1427","AESEQ","10","AETRTEM","TREATMENT EMERGENT FLAG","Y","DERIVED","CLINICAL STUDY SPONSOR"],["CDISCPILOT01","AE","01-718-1427","AESEQ","11","AETRTEM","TREATMENT EMERGENT FLAG","Y","DERIVED","CLINICAL STUDY SPONSOR"],["CDISCPILOT01","AE","01-718-1427","AESEQ","12","AETRTEM","TREATMENT EMERGENT FLAG","Y","DERIVED","CLINICAL STUDY SPONSOR"],["CDISCPILOT01","AE","01-718-1427","AESEQ","13","AETRTEM","TREATMENT EMERGENT FLAG","Y","DERIVED","CLINICAL STUDY SPONSOR"],["CDISCPILOT01","AE","01-718-1427","AESEQ","14","AETRTEM","TREATMENT EMERGENT FLAG","Y","DERIVED","CLINICAL STUDY SPONSOR"],["CDISCPILOT01","AE","01-718-1427","AESEQ","15","AETRTEM","TREATMENT EMERGENT FLAG","Y","DERIVED","CLINICAL STUDY SPONSOR"],["CDISCPILOT01","AE","01-718-1427","AESEQ","16","AETRTEM","TREATMENT EMERGENT FLAG","Y","DERIVED","CLINICAL STUDY SPONSOR"],["CDISCPILOT01","AE","01-718-1427","AESEQ","2","AETRTEM","TREATMENT EMERGENT FLAG","Y","DERIVED","CLINICAL STUDY SPONSOR"],["CDISCPILOT01","AE","01-718-1427","AESEQ","3","AETRTEM","TREATMENT EMERGENT FLAG","Y","DERIVED","CLINICAL STUDY SPONSOR"],["CDISCPILOT01","AE","01-718-1427","AESEQ","4","AETRTEM","TREATMENT EMERGENT FLAG","Y","DERIVED","CLINICAL STUDY SPONSOR"],["CDISCPILOT01","AE","01-718-1427","AESEQ","5","AETRTEM","TREATMENT EMERGENT FLAG","Y","DERIVED","CLINICAL STUDY SPONSOR"],["CDISCPILOT01","AE","01-718-1427","AESEQ","6","AETRTEM","TREATMENT EMERGENT FLAG","Y","DERIVED","CLINICAL STUDY SPONSOR"],["CDISCPILOT01","AE","01-718-1427","AESEQ","7","AETRTEM","TREATMENT EMERGENT FLAG","Y","DERIVED","CLINICAL STUDY SPONSOR"],["CDISCPILOT01","AE","01-718-1427","AESEQ","8","AETRTEM","TREATMENT EMERGENT FLAG","Y","DERIVED","CLINICAL STUDY SPONSOR"],["CDISCPILOT01","AE","01-718-1427","AESEQ","9","AETRTEM","TREATMENT EMERGENT FLAG","Y","DERIVED","CLINICAL STUDY SPONSOR"]]}